"Time (s)","Acceleration x (m/s^2)","Acceleration y (m/s^2)","Acceleration z (m/s^2)","Absolute acceleration (m/s^2)"
8.650592000E-3,4.278367043E0,1.196411327E-1,1.078684425E1,1.160494496E1
1.102606000E-2,-4.441078663E0,1.052841991E-1,8.154739380E0,9.286228449E0
1.340152900E-2,1.804188251E0,-1.052841991E-1,1.205025482E1,1.218502447E1
1.577731000E-2,2.225325108E0,-4.307080805E-2,8.752944946E0,9.031498888E0
1.815283100E-2,-5.120640278E0,5.216353536E-1,9.982855797E0,1.123167263E1
2.052835200E-2,4.532006264E0,-1.770688742E-1,1.107876873E1,1.197119671E1
2.290387300E-2,-3.909872293E0,4.689932466E-1,8.207381248E0,9.103195207E0
2.527939400E-2,1.392622828E0,-4.785645287E-3,1.172961617E1,1.181199884E1
2.765491400E-2,1.473978758E0,-9.092725813E-2,8.772088051E0,8.895527523E0
3.003043500E-2,-4.962714195E0,4.642075896E-1,1.019342422E1,1.134680212E1
3.240590400E-2,5.192425251E0,-2.009970993E-1,1.106441212E1,1.222386581E1
3.478142500E-2,-4.512863636E0,7.369893789E-1,8.015955925E0,9.228469046E0
3.715694600E-2,1.158126116E0,1.579262912E-1,1.159561825E1,1.165437941E1
3.953241400E-2,1.062413216E0,-2.009970993E-1,8.714659691E0,8.781481379E0
4.190798700E-2,-4.235296249E0,3.732803464E-1,1.065763187E1,1.147441457E1
4.428350800E-2,5.101497650E0,-1.435693540E-2,1.053799057E1,1.170789177E1
4.665902900E-2,-5.015356064E0,8.614161611E-1,8.039883614E0,9.515017749E0
4.903449800E-2,1.009771109E0,-3.254238665E-1,1.160040379E1,1.164881566E1
5.141007100E-2,1.421336651E0,-2.344966233E-1,9.030512810E0,9.144689615E0
5.378559200E-2,-3.881158352E0,7.465606928E-1,1.060499001E1,1.131753313E1
5.616111200E-2,4.608576298E0,2.775674164E-1,1.004506969E1,1.105529033E1
5.853663300E-2,-5.426921844E0,9.332008362E-1,8.087740898E0,9.784370053E0
6.091215400E-2,1.789831281E0,-7.752745152E-1,1.172004509E1,1.188124587E1
6.328767500E-2,1.622333765E0,-5.264209956E-2,9.107083321E0,9.250605637E0
6.566319600E-2,-3.938585997E0,7.274180651E-1,1.036570740E1,1.111258235E1
6.803871700E-2,4.402793884E0,3.014956415E-1,1.001635551E1,1.094544980E1
7.041423700E-2,-5.350351334E0,6.891329288E-1,8.212167740E0,9.825520982E0
7.278975800E-2,2.679961443E0,-5.599204898E-1,1.201196957E1,1.232002911E1
7.516527900E-2,1.119840980E0,4.307080805E-2,8.662017822E0,8.734211565E0
7.754080000E-2,-4.005585194E0,8.039883971E-1,1.051406288E1,1.127992147E1
7.991632100E-2,4.354937077E0,-4.785645381E-2,1.002114105E1,1.092662048E1
8.229184200E-2,-4.632504463E0,3.924229145E-1,8.652446747E0,9.822368760E0
8.466736200E-2,2.837887764E0,-9.571290575E-3,1.195932770E1,1.229142862E1
8.704288300E-2,4.977070987E-1,1.866401732E-1,8.288737297E0,8.305763835E0
8.941835200E-2,-4.316651821E0,1.052841991E-1,1.030827999E1,1.117609968E1
9.179387300E-2,5.211567879E0,-2.297109663E-1,1.066720295E1,1.187444422E1
9.416939400E-2,-4.704289436E0,8.805587292E-1,8.317451477E0,9.596130567E0
9.654491400E-2,2.526820660E0,3.493520916E-1,1.173440266E1,1.200845849E1
9.892043500E-2,-3.541377485E-1,-1.100698411E-1,8.327022552E0,8.335276450E0
1.012959560E-1,-3.704089403E0,-4.307080805E-2,1.049970531E1,1.113399951E1
1.036714770E-1,5.283352375E0,-3.349951655E-2,1.075334454E1,1.198120834E1
1.060469980E-1,-5.130211830E0,9.188438654E-1,8.044670105E0,9.585408941E0
1.084225190E-1,2.148754835E0,4.259224236E-1,1.202632618E1,1.222420053E1
1.107980390E-1,-4.307080805E-1,-1.962114573E-1,8.283951759E0,8.297461367E0
1.131735600E-1,-3.177668571E0,1.196411327E-1,1.055713367E1,1.102565023E1
1.155490810E-1,4.867001057E0,-1.914258115E-2,1.039442158E1,1.147745902E1
1.179246020E-1,-5.670989513E0,9.092726111E-1,8.154739380E0,9.974300632E0
1.203001230E-1,2.263610125E0,-2.967100143E-1,1.207418346E1,1.228811922E1
1.226756440E-1,7.657032460E-2,-1.339980662E-1,8.743373871E0,8.744735853E0
1.250511640E-1,-3.235096216E0,6.077769399E-1,1.071027374E1,1.120469562E1
1.274266850E-1,4.163511276E0,7.178468257E-2,9.824930191E0,1.067095274E1
1.298022060E-1,-5.771488190E0,4.163511395E-1,8.465806961E0,1.025442888E1
1.321777270E-1,3.259024382E0,-2.919243574E-1,1.246660614E1,1.288886063E1
1.345532480E-1,-2.488535494E-1,1.866401732E-1,8.188239098E0,8.194145603E0
1.369287690E-1,-3.637090445E0,3.445664644E-1,1.057627583E1,1.118949343E1
1.393042890E-1,4.187439442E0,-2.967100143E-1,1.007856941E1,1.091788658E1
1.416798100E-1,-5.139782906E0,4.019941986E-1,8.839086533E0,1.023271315E1
1.440553310E-1,3.574877024E0,-9.092725813E-2,1.218903828E1,1.270278188E1
1.464308520E-1,-9.571290612E-1,2.679961324E-1,8.130811691E0,8.191337908E0
1.488063210E-1,-3.589233875E0,2.871387079E-2,1.069113159E1,1.127757594E1
1.511818420E-1,4.828716278E0,-4.498506486E-1,1.023170948E1,1.132284175E1
1.535573620E-1,-4.723432064E0,7.465606928E-1,8.886942863E0,1.009187380E1
1.559328830E-1,3.412165165E0,-3.349951655E-2,1.191625690E1,1.239520762E1
1.583084040E-1,-1.550549030E0,-6.221338734E-2,8.082955360E0,8.230567426E0
1.606839250E-1,-2.742174864E0,-1.914258115E-2,1.099741268E1,1.133415083E1
1.630594460E-1,5.307280540E0,-2.823530734E-1,1.020778179E1,1.150850812E1
1.654349670E-1,-5.158925533E0,8.327022791E-1,8.566305161E0,1.003441527E1
1.678104870E-1,3.220739365E0,6.699903309E-2,1.201675510E1,1.244106322E1
1.701860080E-1,-1.454836130E0,-2.488535494E-1,8.159524918E0,8.291943267E0
1.725615290E-1,-1.765903115E0,-4.307080805E-2,1.115533924E1,1.129432878E1
1.749370500E-1,4.967499733E0,-1.770688742E-1,9.781859398E0,1.097233705E1
1.773125710E-1,-5.484349728E0,8.279166222E-1,8.681160927E0,1.030175193E1
1.796880920E-1,3.383451223E0,-4.594219327E-1,1.196411324E1,1.244181724E1
1.820636120E-1,-1.000199914E0,-1.674975902E-1,8.384450912E0,8.445559331E0
1.844391330E-1,-1.469193101E0,3.445664644E-1,1.119362450E1,1.129488751E1
1.868146540E-1,4.340580463E0,2.871387079E-2,9.308079720E0,1.027043384E1
1.891901750E-1,-5.714060307E0,5.551348329E-1,8.767302513E0,1.047970673E1
1.915656960E-1,4.153940201E0,-6.412764788E-1,1.227039433E1,1.297031347E1
1.939412170E-1,-1.158126116E0,9.571290761E-2,8.183453560E0,8.265550752E0
1.963167370E-1,-1.674975872E0,4.019941986E-1,1.102612686E1,1.115986636E1
1.986922580E-1,3.948157310E0,-3.254238665E-1,9.341579437E0,1.014686913E1
2.010677790E-1,-5.259424210E0,2.201396823E-1,9.178867340E0,1.058119134E1
2.034433000E-1,4.857429981E0,-1.435693651E-1,1.225125217E1,1.317984894E1
2.058188210E-1,-2.234896421E0,4.307080805E-1,7.637889862E0,7.969795042E0
2.081943420E-1,-1.612762451E0,5.455635786E-1,1.105962658E1,1.118990538E1
2.105698620E-1,4.019941807E0,-7.944171429E-1,9.384650230E0,1.024024857E1
2.129453310E-1,-4.570291042E0,4.833501875E-1,9.590433121E0,1.063473531E1
2.153209040E-1,4.474578381E0,0.000000000E0,1.172961617E1,1.255411276E1
2.176963730E-1,-2.790031195E0,5.072783828E-1,7.618747234E0,8.129385884E0
2.200718940E-1,-1.445264935E0,-1.292124242E-1,1.126540947E1,1.135847424E1
2.224474140E-1,4.618147850E0,-5.024927258E-1,9.671789169E0,1.072955238E1
2.248229350E-1,-4.737788677E0,7.609176040E-1,9.351150513E0,1.051045447E1
2.271984560E-1,4.082155228E0,-2.871387079E-2,1.152861977E1,1.223004045E1
2.295739770E-1,-3.244667530E0,-4.785645287E-3,7.948956966E0,8.585674530E0
2.319494980E-1,-2.536391914E-1,-1.100698411E-1,1.162433243E1,1.162762025E1
2.343249670E-1,4.264009953E0,-2.344966233E-1,9.332008362E0,1.026270674E1
2.367004870E-1,-5.259424210E0,5.886343718E-1,9.245866776E0,1.065336031E1
2.390760600E-1,4.043870449E0,-2.679961324E-1,1.162433243E1,1.231055704E1
2.414515810E-1,-2.900100946E0,-8.135596663E-2,8.078168869E0,8.583356952E0
2.438271020E-1,4.546363056E-1,1.674975902E-1,1.168175983E1,1.169180322E1
2.462026230E-1,3.345165968E0,-4.785645381E-2,8.963513374E0,9.567496935E0
2.485781440E-1,-5.474778175E0,4.881358147E-1,9.475577354E0,1.095436164E1
2.509536640E-1,4.541577339E0,-5.982056856E-1,1.163390350E1,1.250325900E1
2.533291850E-1,-2.670390129E0,9.571290761E-2,8.240880966E0,8.663270947E0
2.557047060E-1,3.732803464E-1,1.579262912E-1,1.155733299E1,1.156443794E1
2.580802270E-1,2.589034081E0,-2.249253243E-1,8.925228119E0,9.295880047E0
2.604557480E-1,-5.125426292E0,4.785645287E-3,9.714859962E0,1.098401209E1
2.628312690E-1,5.292923450E0,-3.493520916E-1,1.181097221E1,1.294743798E1
2.652067890E-1,-3.574877024E0,3.732803464E-1,7.757531166E0,8.549758695E0
2.675823100E-1,4.402793646E-1,3.924229145E-1,1.167218876E1,1.168707971E1
2.699577790E-1,2.100898266E0,-5.120640397E-1,8.973084450E0,9.229963578E0
2.723333520E-1,-4.311866283E0,-1.531406492E-1,1.005464077E1,1.094127250E1
2.747088210E-1,5.168497086E0,-2.775674164E-1,1.151904774E1,1.262849423E1
2.770843940E-1,-4.225724697E0,5.024927258E-1,7.829315662E0,8.911084777E0
2.794598620E-1,6.699903607E-1,2.392822690E-2,1.182532978E1,1.184431864E1
2.818353830E-1,2.287538528E0,-8.183453679E-1,9.178867340E0,9.494952728E0
2.842109040E-1,-4.072584152E0,1.770688742E-1,1.013121128E1,1.092056487E1
2.865863730E-1,4.718646049E0,-1.722832322E-1,1.097348499E1,1.194624104E1
2.889619460E-1,-4.680361271E0,3.684946895E-1,7.939385414E0,9.223633271E0
2.913374670E-1,1.574477315E0,-4.546363056E-1,1.207896900E1,1.218963351E1
2.937129870E-1,2.029113531E0,-3.158525825E-1,9.092725754E0,9.321734077E0
2.960885080E-1,-4.115654945E0,3.732803464E-1,1.016471100E1,1.097266164E1
2.984640290E-1,4.417150497E0,-4.354937077E-1,1.050449181E1,1.140373717E1
3.008395500E-1,-4.637290478E0,-4.785645287E-3,8.264809608E0,9.476896314E0
3.032150710E-1,2.699103832E0,-8.614161611E-2,1.253360462E1,1.282122563E1
3.055905920E-1,9.714859724E-1,-4.307080805E-2,8.437092781E0,8.492948527E0
3.079661120E-1,-4.187439442E0,6.508477330E-1,1.033220863E1,1.116748795E1
3.103416330E-1,4.584648132E0,-8.709874153E-1,1.034656525E1,1.135028766E1
3.127171540E-1,-4.177868366E0,1.004985496E-1,8.819944382E0,9.759923306E0
3.150926750E-1,2.828316450E0,-6.221338734E-2,1.227996540E1,1.260161873E1
3.174681960E-1,2.775674164E-1,1.196411327E-1,8.149953842E0,8.155556713E0
3.198437170E-1,-3.933800459E0,3.397808075E-1,1.066241741E1,1.137002120E1
3.222192370E-1,5.206781864E0,-8.566305041E-1,1.032742214E1,1.159741529E1
3.245947580E-1,-4.436293125E0,2.632105052E-1,8.556734085E0,9.641974625E0
3.269702790E-1,2.900100946E0,2.871387079E-2,1.230389404E1,1.264109246E1
3.293458000E-1,-3.972085714E-1,2.392822690E-2,8.116454124E0,8.126202973E0
3.317213210E-1,-3.072384357E0,-6.221338734E-2,1.077727318E1,1.120682976E1
3.340968420E-1,5.154139996E0,-4.019941986E-1,1.042792130E1,1.163908506E1
3.364723620E-1,-4.804787636E0,5.264210105E-1,8.336593628E0,9.636487774E0
3.388478830E-1,2.890529871E0,-3.014956415E-1,1.221296692E1,1.255398835E1
3.412233520E-1,-4.689932466E-1,-3.349951804E-1,8.413164139E0,8.432882500E0
3.435988210E-1,-2.230110645E0,3.828516304E-1,1.109791183E1,1.132623574E1
3.459743940E-1,4.589433670E0,-1.339980662E-1,9.700503349E0,1.073222354E1
3.483499140E-1,-5.536991596E0,3.637090325E-1,8.537590981E0,1.018238773E1
3.507254350E-1,3.536591768E0,-4.785645306E-1,1.250967693E1,1.300878635E1
3.531009560E-1,-5.407779217E-1,-4.785645287E-3,8.384450912E0,8.401873646E0
3.554764770E-1,-2.220539331E0,3.349951804E-1,1.074855900E1,1.098064375E1
3.578519980E-1,4.015156269E0,-3.254238665E-1,9.623932838E0,1.043299879E1
3.602275190E-1,-5.359922886E0,1.579262912E-1,9.025727272E0,1.049845069E1
3.626030390E-1,4.493721008E0,-3.158525825E-1,1.243789196E1,1.322854670E1
3.649785600E-1,-1.708475351E0,2.632105052E-1,7.853243828E0,8.041244084E0
3.673540810E-1,-2.014756680E0,5.886343718E-1,1.111705399E1,1.131347092E1
3.697295500E-1,3.756731510E0,-5.886343718E-1,9.336793900E0,1.008143057E1
3.721051230E-1,-4.871787071E0,1.914258115E-2,9.346364975E0,1.053988681E1
3.744806440E-1,4.488935471E0,-2.009970993E-1,1.231346512E1,1.310772157E1
3.768561640E-1,-2.416750908E0,3.397808075E-1,7.604390144E0,7.986418810E0
3.792316850E-1,-1.765903115E0,4.019941986E-1,1.124626637E1,1.139115974E1
3.816072060E-1,4.048655987E0,-8.279166222E-1,9.499505997E0,1.035942447E1
3.839827270E-1,-4.790431023E0,3.493520916E-1,9.446864128E0,1.059780723E1
3.863582480E-1,4.197010994E0,4.785645287E-3,1.176790142E1,1.249393565E1
3.887337690E-1,-3.091526747E0,3.732803464E-1,7.771887779E0,8.372521454E0
3.911092890E-1,-9.906286001E-1,-2.440679073E-1,1.135155106E1,1.139730782E1
3.934848100E-1,4.072584152E0,-3.062812984E-1,9.566504478E0,1.040181512E1
3.958603310E-1,-4.929214478E0,6.747759581E-1,9.375079155E0,1.061341543E1
3.982358520E-1,3.996013880E0,-1.387837082E-1,1.136112213E1,1.204418880E1
4.006113730E-1,-3.402593851E0,-9.571290575E-3,7.948956966E0,8.646597792E0
4.029868940E-1,3.589234054E-1,2.009970993E-1,1.184447193E1,1.185161344E1
4.053624140E-1,3.254238844E0,1.435693540E-2,8.772088051E0,9.356270910E0
4.077379350E-1,-5.364708424E0,4.642075896E-1,9.552147865E0,1.096535973E1
4.101134040E-1,4.378865242E0,-2.009970993E-1,1.167697430E1,1.247263362E1
4.124889250E-1,-3.048455954E0,3.397808075E-1,8.035098076E0,8.600659032E0
4.148644460E-1,5.790630579E-1,2.871387303E-1,1.142333508E1,1.144160596E1
4.172399670E-1,2.354537487E0,-1.148554832E-1,8.920442581E0,9.226664316E0
4.196154870E-1,-5.067998409E0,2.201396823E-1,9.777072906E0,1.101472759E1
4.219910080E-1,5.182853699E0,-1.627119333E-1,1.143290615E1,1.255387552E1
4.243665290E-1,-3.641875982E0,9.332008362E-1,7.953742504E0,8.797507846E0
4.267420500E-1,6.604190469E-1,3.589234054E-1,1.143769264E1,1.146236417E1
4.291175710E-1,1.751546144E0,-5.216353536E-1,8.839086533E0,9.026043877E0
4.314930390E-1,-4.110869408E0,2.488535494E-1,1.049013424E1,1.126960921E1
4.338686120E-1,5.221138954E0,0.000000000E0,1.083470058E1,1.202709561E1
4.362441330E-1,-4.594219685E0,8.279166222E-1,7.929814339E0,9.201861545E0
4.386196540E-1,1.081555843E0,2.679961324E-1,1.184925747E1,1.190153299E1
4.409951750E-1,1.502692580E0,-4.259224236E-1,8.776873589E0,8.914763311E0
4.433706440E-1,-3.594019651E0,3.158525825E-1,1.062413216E1,1.122002336E1
4.457462170E-1,4.795216560E0,9.092725813E-2,1.035613632E1,1.141279673E1
4.481217370E-1,-5.225924492E0,7.561319470E-1,8.015955925E0,9.598831789E0
4.504972580E-1,1.895115495E0,-2.057827413E-1,1.212682533E1,1.227573631E1
4.528727790E-1,1.196411371E0,-5.742774159E-2,8.910871506E0,8.991013797E0
4.552483000E-1,-3.570091486E0,5.647061467E-1,1.042313576E1,1.103205354E1
4.576238210E-1,4.244867325E0,2.392822690E-2,9.982855797E0,1.084789754E1
4.599993420E-1,-5.316852093E0,3.541377485E-1,8.341380119E0,9.898128713E0
4.623748620E-1,3.153740168E0,-1.435693540E-2,1.259103298E1,1.297999980E1
4.647503830E-1,7.657032460E-2,2.775674164E-1,8.054241180E0,8.059386309E0
4.671259040E-1,-3.680161238E0,7.178468108E-1,1.049491978E1,1.114460551E1
4.695014250E-1,4.182653904E0,-4.450650215E-1,9.863214493E0,1.072267115E1
4.718769460E-1,-4.737788677E0,3.972085714E-1,8.901300430E0,1.009146003E1
4.742524140E-1,3.493520975E0,1.531406492E-1,1.209811115E1,1.259334881E1
4.766279350E-1,-1.215553880E0,5.264210105E-1,7.810173035E0,7.921710241E0
4.790034560E-1,-3.302095175E0,6.508477330E-1,1.078205872E1,1.129514168E1
4.813789250E-1,4.579862595E0,-5.599204898E-1,9.710074425E0,1.075054406E1
4.837544460E-1,-4.790431023E0,6.077769399E-1,8.896514893E0,1.012252930E1
4.861300190E-1,3.512663603E0,2.344966233E-1,1.208375454E1,1.258613992E1
4.885055390E-1,-2.024327993E0,4.642075896E-1,7.666603565E0,7.942934139E0
4.908810600E-1,-2.297109842E0,1.387837082E-1,1.094477081E1,1.118409508E1
4.932565810E-1,4.618147850E0,-1.627119333E-1,9.896714211E0,1.092239520E1
4.956321020E-1,-5.072783947E0,8.518448472E-1,8.733802795E0,1.013597987E1
4.980076230E-1,3.493520975E0,4.785645287E-3,1.183011532E1,1.233516681E1
5.003831440E-1,-2.526820660E0,3.828516230E-2,7.939385414E0,8.331874288E0
5.027586640E-1,-8.470591903E-1,4.498506486E-1,1.143769264E1,1.147783463E1
5.051341850E-1,3.952943087E0,7.178468257E-2,9.154939651E0,9.972152832E0
5.075097060E-1,-5.580062389E0,7.322037220E-1,9.092725754E0,1.069349710E1
5.098852270E-1,3.857230186E0,-2.536391914E-1,1.180140114E1,1.241835844E1
5.122607480E-1,-2.402393818E0,1.722832322E-1,8.106883049E0,8.457111229E0
5.146362690E-1,-3.397808075E-1,4.498506486E-1,1.137547874E1,1.138943955E1
5.170117890E-1,3.058027267E0,1.483550072E-1,8.997013092E0,9.503672162E0
5.193873100E-1,-5.541777134E0,4.259224236E-1,9.336793900E0,1.086592951E1
5.217628310E-1,4.709074974E0,-2.009970993E-1,1.178225899E1,1.269005176E1
5.241383520E-1,-3.110669374E0,5.407779217E-1,7.700103283E0,8.322277049E0
5.265138730E-1,-2.392822690E-2,1.962114573E-1,1.134676456E1,1.134848614E1
5.288893940E-1,2.411965132E0,-1.866401732E-1,9.035298347E0,9.353556895E0
5.312649140E-1,-4.694717884E0,5.694918036E-1,1.019342422E1,1.123701893E1
5.336404350E-1,4.934000492E0,3.349951655E-2,1.095434189E1,1.201428688E1
5.360159560E-1,-4.173082829E0,6.173482537E-1,7.771887779E0,8.842962106E0
5.383914770E-1,3.924229145E-1,-2.057827413E-1,1.164826107E1,1.165668599E1
5.407669980E-1,2.115255117E0,-2.967100143E-1,9.073583603E0,9.321601817E0
5.431424670E-1,-4.106083870E0,7.561319470E-1,1.045663452E1,1.125934571E1
5.455179870E-1,4.522434711E0,2.871387303E-1,1.025085258E1,1.120780278E1
5.478935080E-1,-5.091926575E0,8.566305041E-1,8.087740898E0,9.595472104E0
5.502690290E-1,1.426122308E0,-7.704889178E-1,1.162911797E1,1.174154431E1
5.526445500E-1,1.646261930E0,-1.866401732E-1,9.245866776E0,9.393139269E0
5.550200710E-1,-4.039084435E0,7.417750359E-1,1.047099209E1,1.124749344E1
5.573955920E-1,4.278367043E0,3.972085714E-1,9.863214493E0,1.075849429E1
5.597711120E-1,-5.551348686E0,7.704889178E-1,8.341380119E0,1.004936554E1
5.621466330E-1,2.579462767E0,-7.034898400E-1,1.192104244E1,1.221719195E1
5.645221540E-1,4.689932466E-1,-6.699903309E-2,8.561519623E0,8.574617297E0
5.668976750E-1,-3.847658873E0,7.896314859E-1,1.087298584E1,1.156070144E1
5.692731960E-1,4.302295208E0,4.785645381E-2,9.638289452E0,1.055502998E1
5.716487170E-1,-5.345565796E0,4.354937077E-1,8.705088615E0,1.022464162E1
5.740242370E-1,2.880958557E0,-2.440679073E-1,1.211725426E1,1.245742117E1
5.763997580E-1,-5.216353536E-1,1.387837082E-1,8.216953278E0,8.234663656E0
5.787752790E-1,-3.708875179E0,6.317051649E-1,1.091127110E1,1.154169153E1
5.811508000E-1,4.599005222E0,-2.775674164E-1,9.700503349E0,1.073907156E1
5.835263210E-1,-5.130211830E0,6.029912829E-1,8.767302513E0,1.017586681E1
5.859018420E-1,2.981456995E0,-2.392822690E-2,1.218425274E1,1.254375036E1
5.882773620E-1,-1.387837172E0,1.435693651E-1,7.877171993E0,7.999783921E0
5.906528830E-1,-2.727817774E0,3.254238665E-1,1.106441212E1,1.140035552E1
5.930284040E-1,4.632504463E0,-1.148554832E-1,9.858428955E0,1.089320480E1
5.954039250E-1,-5.297709465E0,6.460621357E-1,8.642875671E0,1.015787486E1
5.977794460E-1,3.139383316E0,-7.657032460E-2,1.206461143E1,1.246661300E1
6.001549670E-1,-1.914258122E0,-8.135596663E-2,7.948956966E0,8.176608087E0
6.025304870E-1,-1.196411371E0,3.972085714E-1,1.141854954E1,1.148792620E1
6.049060080E-1,3.991228104E0,4.785645381E-2,9.212367058E0,1.003991528E1
6.072815290E-1,-5.469992638E0,8.662018180E-1,9.121439934E0,1.067107265E1
6.096570500E-1,3.751945972E0,-6.077769399E-1,1.161954689E1,1.222539821E1
6.120325710E-1,-2.072184324E0,-5.742774159E-2,8.394021988E0,8.646204425E0
6.144080390E-1,-3.206382394E-1,3.780659735E-1,1.154776192E1,1.155839730E1
6.167835600E-1,3.230310678E0,1.770688742E-1,8.858229637E0,9.430508617E0
6.191590810E-1,-5.474778175E0,9.044869542E-1,9.657432556E0,1.113810111E1
6.215346020E-1,4.642076015E0,-8.231309652E-1,1.128933716E1,1.223419584E1
6.239101230E-1,-2.790031195E0,-2.871387079E-2,8.221738815E0,8.682285857E0
6.262856440E-1,2.488535494E-1,3.589234054E-1,1.189711380E1,1.190512792E1
6.286611640E-1,2.622533560E0,1.914258115E-2,8.638090134E0,9.027438721E0
6.310366850E-1,-4.967499733E0,5.120640397E-1,1.011685371E1,1.128224234E1
6.334122060E-1,4.876572609E0,-5.982056856E-1,1.102612686E1,1.207121717E1
6.357877270E-1,-3.651447296E0,1.244267747E-1,7.963313580E0,8.761444661E0
6.381631960E-1,6.221339107E-1,3.014956415E-1,1.220339584E1,1.222296283E1
6.405387690E-1,2.325823545E0,-1.914258152E-1,8.604590416E0,8.915440271E0
6.429142890E-1,-4.369294167E0,6.795616150E-1,1.025563812E1,1.116828764E1
6.452898100E-1,4.402793884E0,-4.115654826E-1,1.057627583E1,1.146348945E1
6.476653310E-1,-4.378865242E0,4.307080805E-2,8.073383331E0,9.184543229E0
6.500408520E-1,1.536192179E0,4.785645287E-3,1.239960670E1,1.249440498E1
6.524163730E-1,1.756331801E0,-3.828516230E-2,8.647661209E0,8.824296660E0
6.547918940E-1,-4.407579422E0,7.226324677E-1,1.012642574E1,1.106767602E1
6.571674140E-1,4.125226021E0,-2.297109663E-1,1.040877819E1,1.119879102E1
6.595428830E-1,-4.814359188E0,4.785645287E-3,8.059026718E0,9.387544351E0
6.619184560E-1,2.455035925E0,-1.722832322E-1,1.265803146E1,1.289506275E1
6.642939770E-1,9.523434043E-1,4.881358147E-1,8.269595146E0,8.338551338E0
6.666694980E-1,-4.512863636E0,4.881358147E-1,1.004506969E1,1.102305039E1
6.690450190E-1,4.197010994E0,-6.652047038E-1,1.022213840E1,1.107020832E1
6.714205390E-1,-4.555934429E0,2.727817893E-1,8.733802795E0,9.854453800E0
6.737960600E-1,2.895315409E0,4.785645381E-2,1.217946720E1,1.251896812E1
6.761715810E-1,-3.206382394E-1,3.254238665E-1,8.044670105E0,8.057631580E0
6.785471020E-1,-4.086941242E0,7.704889178E-1,1.060977554E1,1.139579216E1
6.809226230E-1,4.622933388E0,-8.135597110E-1,9.887143135E0,1.094481575E1
6.832980920E-1,-4.575077057E0,3.397808075E-1,8.724231720E0,9.856926508E0
6.856736120E-1,3.005385160E0,1.387837082E-1,1.225603771E1,1.261990734E1
6.880491330E-1,-9.379864931E-1,3.541377485E-1,7.771887779E0,7.836291971E0
6.904246540E-1,-3.364308596E0,3.972085714E-1,1.073420238E1,1.125608492E1
6.928001750E-1,4.972285271E0,-5.312066078E-1,1.000678444E1,1.118666778E1
6.951756960E-1,-4.871787071E0,4.115654826E-1,8.575876236E0,9.871643664E0
6.975512170E-1,3.019742250E0,2.009970993E-1,1.235175037E1,1.271711368E1
6.999267370E-1,-1.134197950E0,1.914258152E-1,7.929814339E0,8.012802523E0
7.023022580E-1,-2.287538528E0,4.019941986E-1,1.085384369E1,1.109956552E1
7.046777790E-1,4.546362877E0,-4.642075896E-1,9.796216011E0,1.080975264E1
7.070533000E-1,-5.058426857E0,3.637090325E-1,8.781659126E0,1.014088278E1
7.094288210E-1,3.579662561E0,8.135596663E-2,1.235175037E1,1.286026206E1
7.118043420E-1,-1.153340459E0,1.339980662E-1,8.030312538E0,8.113819640E0
7.141798620E-1,-1.775474429E0,5.982056856E-1,1.091605663E1,1.107566937E1
7.165553830E-1,4.048655987E0,-1.722832322E-1,9.504291534E0,1.033212729E1
7.189309040E-1,-5.288137913E0,8.135596663E-2,8.786444664E0,1.025537085E1
7.213064250E-1,4.455435753E0,-3.110669553E-1,1.254796219E1,1.331912255E1
7.236819460E-1,-1.435693622E0,8.997012973E-1,7.953742504E0,8.132201327E0
7.260574670E-1,-1.885544300E0,5.264209956E-2,1.058584690E1,1.075259053E1
7.284329870E-1,3.890729666E0,-5.455635786E-1,9.537791252E0,1.031527406E1
7.308085080E-1,-4.713860512E0,4.881358147E-1,9.686145782E0,1.078332869E1
7.331840290E-1,4.919643402E0,-2.392822690E-2,1.161476135E1,1.261372844E1
7.355595500E-1,-2.904886723E0,5.359922647E-1,7.867600918E0,8.403856185E0
7.379350710E-1,-1.330409408E0,7.178468257E-2,1.111705399E1,1.119660804E1
7.403105920E-1,3.929014683E0,-4.689932466E-1,9.432506561E0,1.022884603E1
7.426861120E-1,-4.460221291E0,7.034898400E-1,9.978070259E0,1.095218508E1
7.450616330E-1,4.469792843E0,7.178468257E-2,1.117926693E1,1.203994228E1
7.474371540E-1,-3.632304668E0,3.110669553E-1,7.776673794E0,8.588774950E0
7.498126750E-1,-5.599204898E-1,-2.727817893E-1,1.141854954E1,1.143552336E1
7.521881960E-1,3.828516245E0,-3.014956415E-1,9.600004196E0,1.033965748E1
7.545636640E-1,-4.804787636E0,6.987041831E-1,9.705288887E0,1.085204147E1
7.569392370E-1,4.149154663E0,3.541377485E-1,1.103569794E1,1.179523323E1
7.593147060E-1,-4.163511276E0,4.019941986E-1,7.910671711E0,8.948472071E0
7.616902270E-1,6.939185858E-1,-7.369893789E-1,1.151904774E1,1.156343968E1
7.640657480E-1,3.038884640E0,-2.488535494E-1,9.422935486E0,9.903961890E0
7.664412690E-1,-4.838287354E0,8.087740541E-1,1.007378292E1,1.120465271E1
7.688167890E-1,4.197010994E0,1.052841991E-1,1.052363396E1,1.133017465E1
7.711923100E-1,-4.177868366E0,1.004985496E-1,8.221738815E0,9.222888549E0
7.735678310E-1,1.564906001E0,-3.158525825E-1,1.195454216E1,1.206067046E1
7.759433520E-1,1.947757602E0,-1.339980662E-1,8.757730484E0,8.972711875E0
7.783188730E-1,-4.689932346E0,6.556333899E-1,1.038485050E1,1.141360769E1
7.806943940E-1,4.819144726E0,-3.254238665E-1,1.040877819E1,1.147487342E1
7.830699140E-1,-4.130012035E0,2.967100143E-1,8.518448830E0,9.471483870E0
7.854454350E-1,1.875972986E0,-2.057827413E-1,1.199761295E1,1.214513638E1
7.878209560E-1,1.134197950E0,-1.818545163E-1,8.566305161E0,8.642977505E0
7.901964770E-1,-3.972085476E0,3.780659735E-1,1.063370419E1,1.135764331E1
7.925719980E-1,5.297709465E0,-2.488535494E-1,1.040399265E1,1.167778732E1
7.949475190E-1,-4.675575256E0,4.594219327E-1,8.250452042E0,9.494315741E0
7.973230390E-1,2.244467735E0,-3.493520916E-1,1.219861031E1,1.240829463E1
7.996985600E-1,3.828516304E-1,-3.014956415E-1,8.427521706E0,8.441599202E0
8.020740810E-1,-2.780459881E0,3.158525825E-1,1.110748291E1,1.145455790E1
8.044496020E-1,4.905286312E0,-3.349951655E-2,9.757930756E0,1.092154607E1
8.068251230E-1,-5.259424210E0,8.853443861E-1,8.537590981E0,1.006657029E1
8.092006440E-1,2.971885681E0,-7.561319470E-1,1.180618668E1,1.219794589E1
8.115761640E-1,-3.110669553E-1,-4.259224236E-1,8.662017822E0,8.678059997E0
8.139516850E-1,-2.033899307E0,5.790630579E-1,1.118405342E1,1.138222787E1
8.163272060E-1,4.302295208E0,2.153540403E-1,9.178867340E0,1.013941453E1
8.187026750E-1,-5.718846321E0,4.211367965E-1,8.896514893E0,1.058444787E1
8.210782480E-1,3.900300980E0,-7.034898400E-1,1.227996540E1,1.290367374E1
8.234537690E-1,-1.095912814E0,5.742774159E-2,8.216953278E0,8.289912183E0
8.258292370E-1,-1.842473388E0,4.929214716E-1,1.103569794E1,1.119929947E1
8.282048100E-1,3.560520172E0,-2.871387079E-2,9.379864693E0,1.003294523E1
8.305802790E-1,-5.412564754E0,1.100698411E-1,9.207581520E0,1.068117644E1
8.329558000E-1,4.503292084E0,-1.962114573E-1,1.223210907E1,1.303620462E1
8.353312690E-1,-2.636890650E0,3.014956415E-1,7.700103283E0,8.144672031E0
8.377068420E-1,-1.622333765E0,1.674975902E-1,1.119841003E1,1.131655467E1
8.400823620E-1,3.230310678E0,-5.120640397E-1,9.418149948E0,9.969887918E0
8.424578830E-1,-4.699503899E0,5.599204898E-1,9.992427826E0,1.105655741E1
8.448334040E-1,4.139583111E0,-3.828516230E-2,1.108355427E1,1.183143226E1
8.472089250E-1,-3.919443607E0,2.632105052E-1,7.843672752E0,8.772372553E0
8.495844460E-1,-4.067798555E-1,-1.962114573E-1,1.173918819E1,1.174787250E1
8.519599670E-1,2.995813847E0,-3.732803464E-1,9.298508644E0,9.776323533E0
8.543354870E-1,-4.752145767E0,6.317051649E-1,9.992427826E0,1.108289469E1
8.567110080E-1,4.053441525E0,8.135596663E-2,1.071027374E1,1.145194178E1
8.590865290E-1,-4.699503899E0,1.483550072E-1,7.963313580E0,9.247794833E0
8.614620500E-1,1.349551916E0,-2.967100143E-1,1.223210907E1,1.230990737E1
8.638375710E-1,1.899901152E0,-7.657032460E-2,8.829515457E0,9.031933935E0
8.662130920E-1,-4.508078098E0,4.546363056E-1,1.012642574E1,1.109387041E1
8.685886120E-1,4.144368649E0,-2.153540403E-1,1.034656525E1,1.114780612E1
8.709641330E-1,-4.584648132E0,6.699903309E-2,8.494520187E0,9.652997492E0
8.733396540E-1,2.641676188E0,-1.914258115E-2,1.244267750E1,1.272002527E1
8.757151750E-1,3.158525825E-1,9.092725813E-2,8.274380684E0,8.280906129E0
8.780906960E-1,-3.967299938E0,3.158525825E-1,1.049491978E1,1.122419586E1
8.804662170E-1,4.579862595E0,-6.556333899E-1,9.987641335E0,1.100717838E1
8.828417370E-1,-4.388436794E0,3.349951804E-1,8.992227554E0,1.001153113E1
8.852172580E-1,3.072384357E0,3.349951655E-2,1.214118195E1,1.252393576E1
8.875927790E-1,-1.062413216E0,1.818545163E-1,8.020741463E0,8.092841684E0
8.899683000E-1,-2.804388046E0,-2.105683982E-1,1.071506023E1,1.107797126E1
8.923438210E-1,4.953142643E0,-4.785645306E-1,1.017428207E1,1.132601703E1
8.947193420E-1,-4.795216560E0,6.460621357E-1,9.044869423E0,1.025773664E1
8.970948620E-1,3.383451223E0,1.244267747E-1,1.172004509E1,1.219929019E1
8.994703310E-1,-2.287538528E0,-1.100698411E-1,8.020741463E0,8.341297351E0
9.018458520E-1,-9.858429432E-1,-2.392822653E-1,1.128933716E1,1.133482579E1
9.042213730E-1,4.206582069E0,-2.488535494E-1,9.686145782E0,1.056308103E1
9.065968940E-1,-5.130211830E0,7.465606928E-1,9.351150513E0,1.069207380E1
9.089724140E-1,3.814159393E0,-7.178468257E-2,1.135155106E1,1.197541967E1
9.113479350E-1,-2.904886723E0,-1.339980662E-1,8.236095428E0,8.734391236E0
9.137234560E-1,4.067798555E-1,1.818545163E-1,1.161954689E1,1.162808715E1
9.160989770E-1,2.761317253E0,3.349951655E-2,8.934800148E0,9.351825965E0
9.184744980E-1,-5.206781864E0,2.536391914E-1,9.695717812E0,1.100826299E1
9.208500190E-1,4.685146809E0,-2.440679073E-1,1.116012478E1,1.210613707E1
9.232255390E-1,-3.603590965E0,5.407779217E-1,8.140382767E0,8.918752166E0
9.256010600E-1,1.076770186E0,1.914258152E-1,1.172004509E1,1.177096151E1
9.279765810E-1,1.105484009E0,-1.052841991E-1,8.786444664E0,8.856341767E0
9.303521020E-1,-4.048655987E0,8.135596663E-2,1.017906761E1,1.095498295E1
9.327276230E-1,5.053641319E0,-6.221338734E-2,1.051406288E1,1.166570527E1
9.351031440E-1,-4.675575256E0,8.135597110E-1,8.365307808E0,9.617757436E0
9.374786640E-1,1.923829436E0,2.009970993E-1,1.188275719E1,1.203916267E1
9.398541850E-1,-2.871387303E-1,-2.344966233E-1,8.403593063E0,8.411766384E0
9.422297060E-1,-2.617748022E0,3.397808075E-1,1.082991505E1,1.114697787E1
9.446052270E-1,4.613361835E0,9.571290575E-3,9.724431038E0,1.076325964E1
9.469807480E-1,-5.446064472E0,6.939185858E-1,8.719446182E0,1.030387708E1
9.493562690E-1,2.967100143E0,-4.785645287E-3,1.203111267E1,1.239158498E1
9.517317890E-1,-1.196411371E0,-5.742774159E-2,8.169096947E0,8.256442517E0
9.541073100E-1,-1.598405480E0,4.594219327E-1,1.096869946E1,1.109406762E1
9.564828310E-1,3.699303865E0,1.387837082E-1,9.308079720E0,1.001720810E1
9.588583520E-1,-5.541777134E0,2.967100143E-1,9.159725189E0,1.070980374E1
9.612338730E-1,4.311866283E0,-1.196411327E-1,1.183011532E1,1.259198687E1
9.636093940E-1,-2.536391973E0,4.307080805E-1,7.925028801E0,8.332159095E0
9.659849140E-1,-5.838487148E-1,4.354937077E-1,1.126062298E1,1.128415544E1
9.683604350E-1,2.498106956E0,-2.105683982E-1,9.097511292E0,9.436608984E0
9.707359560E-1,-4.503292084E0,-4.307080805E-2,9.906285286E0,1.088191081E1
9.731114250E-1,4.881358147E0,-6.699903309E-2,1.117926693E1,1.219869482E1
9.754868940E-1,-4.096512318E0,7.752745152E-1,7.920242786E0,8.950570347E0
9.778625190E-1,8.422735929E-1,4.163511395E-1,1.179183006E1,1.182920240E1
9.802379870E-1,1.162911773E0,-3.445664644E-1,8.647661209E0,8.732304062E0
9.826135600E-1,-3.416950703E0,-2.536391914E-1,1.016949654E1,1.073119494E1
9.849890290E-1,4.771288395E0,-7.178468257E-2,1.064806080E1,1.166839941E1
9.873645500E-1,-5.048855782E0,8.805587292E-1,8.135597229E0,9.615314381E0
9.897400710E-1,2.455035925E0,2.105683982E-1,1.199282742E1,1.224334308E1
9.921155920E-1,-7.178468257E-2,-9.571290575E-3,8.537590981E0,8.537898125E0
9.944911120E-1,-2.646461725E0,-2.488535494E-1,1.012164021E1,1.046485968E1
9.968666330E-1,4.369294167E0,-1.100698411E-1,1.002114105E1,1.093279996E1
9.992421540E-1,-5.206781864E0,7.992027402E-1,9.016156197E0,1.044223994E1
1.001617675E0,4.077369690E0,0.000000000E0,1.170568848E1,1.239548653E1
1.003993196E0,-1.837687731E0,3.589234054E-1,8.106883049E0,8.320304981E0
1.006368717E0,-1.780260086E0,-4.785645287E-3,1.072463131E1,1.087138747E1
1.008744237E0,4.048655987E0,-3.493520916E-1,9.480362892E0,1.031459853E1
1.011119758E0,-4.709074974E0,6.077769399E-1,9.887143135E0,1.096815296E1
1.013495279E0,4.704289436E0,1.627119333E-1,1.105005455E1,1.201085009E1
1.015870800E0,-3.369094372E0,6.747759581E-1,7.905886173E0,8.620275846E0
1.018246321E0,-6.460621357E-1,-1.244267747E-1,1.109791183E1,1.111739742E1
1.020621789E0,3.579662561E0,-6.987041831E-1,9.379864693E0,1.006399688E1
1.022997362E0,-4.077369690E0,6.125625968E-1,1.029392338E1,1.108896005E1
1.025372883E0,4.627718925E0,2.201396823E-1,1.049013424E1,1.146765714E1
1.027748404E0,-4.527220249E0,7.130611539E-1,7.996813297E0,9.217006147E0
1.030123925E0,9.140582681E-1,-4.594219327E-1,1.153819084E1,1.158345453E1
1.032499446E0,2.694318295E0,-5.120640397E-1,9.231510162E0,9.630282474E0
1.034874967E0,-3.919443607E0,5.790630579E-1,1.023170948E1,1.097202037E1
1.037250487E0,4.579862595E0,2.249253243E-1,1.009292603E1,1.108570650E1
1.039626008E0,-5.134997368E0,3.972085714E-1,8.231309891E0,9.709811282E0
1.042001529E0,2.522035122E0,-5.168496966E-1,1.218903828E1,1.245794722E1
1.044377050E0,1.071984529E0,-2.967100143E-1,8.480163574E0,8.552798484E0
1.046752519E0,-3.641875982E0,6.077769399E-1,1.083470058E1,1.144654490E1
1.049128092E0,4.565505505E0,-4.307080805E-2,9.724431038E0,1.074291649E1
1.051503560E0,-5.000999451E0,3.732803464E-1,8.810373306E0,1.013765316E1
1.053879081E0,3.182454109E0,-4.115654826E-1,1.207418346E1,1.249333049E1
1.056254602E0,-4.259224236E-1,-2.009970993E-1,8.130811691E0,8.144440343E0
1.058630123E0,-3.019742250E0,5.024927258E-1,1.118405342E1,1.159544709E1
1.061005644E0,4.780859470E0,-3.732803464E-1,9.662218094E0,1.078677032E1
1.063381164E0,-5.053641319E0,6.891329288E-1,9.025727272E0,1.036715716E1
1.065756685E0,3.436093330E0,-3.302095234E-1,1.175354481E1,1.224996291E1
1.068132206E0,-1.947757602E0,-3.158525825E-1,7.992027760E0,8.232012527E0
1.070507727E0,-1.416550994E0,2.823530734E-1,1.172961617E1,1.181821625E1
1.072883248E0,4.297509670E0,3.349951655E-2,9.274580956E0,1.022191584E1
1.075258769E0,-5.388636589E0,2.775674164E-1,9.107083321E0,1.058552854E1
1.077634289E0,3.728017569E0,-3.589234054E-1,1.151904774E1,1.211261333E1
1.080009810E0,-2.742174864E0,-1.674975902E-1,8.011170387E0,8.469145730E0
1.082385331E0,3.541377485E-1,3.780659735E-1,1.210289669E1,1.211397770E1
1.084760852E0,2.694318295E0,3.206382394E-1,8.685946465E0,9.099880545E0
1.087136373E0,-5.249852657E0,-1.579262912E-1,9.647860527E0,1.098485805E1
1.089511894E0,4.594219685E0,-3.397808075E-1,1.126062298E1,1.216650876E1
1.091887414E0,-3.220739365E0,3.732803464E-1,8.456234932E0,9.056511994E0
1.094262935E0,1.383051515E0,2.536391914E-1,1.157169056E1,1.165680860E1
1.096638456E0,1.009771109E0,1.674975902E-1,8.724231720E0,8.784071507E0
1.099013977E0,-4.311866283E0,-2.823530734E-1,1.003071213E1,1.092186339E1
1.101389498E0,5.307280540E0,-5.503492355E-1,1.076770210E1,1.201721763E1
1.103765019E0,-4.077369690E0,1.100698471E0,8.623732567E0,9.602356174E0
1.106140539E0,1.971685886E0,0.000000000E0,1.156690502E1,1.173374778E1
1.108516060E0,-3.780659735E-1,-4.259224236E-1,8.551948547E0,8.570890721E0
1.110891581E0,-2.459821701E0,4.785645381E-2,1.080598736E1,1.108252570E1
1.113267102E0,5.235496044E0,-2.009970993E-1,1.005464077E1,1.133784017E1
1.115642623E0,-5.264209747E0,7.992027402E-1,8.609375954E0,1.012284464E1
1.118018144E0,2.938386202E0,7.657032460E-2,1.185882950E1,1.221768446E1
1.120393664E0,-1.143769264E0,-5.168496966E-1,8.173882484E0,8.269685400E0
1.122769185E0,-1.196411371E0,1.722832322E-1,1.133240795E1,1.139669038E1
1.125144706E0,4.369294167E0,-7.657032460E-2,9.437292099E0,1.039995561E1
1.127520227E0,-5.675775528E0,5.455635786E-1,9.092725754E0,1.073264781E1
1.129895696E0,3.948157310E0,-3.589234054E-1,1.162911797E1,1.228629956E1
1.132271269E0,-1.880758643E0,-1.052841991E-1,8.350951195E0,8.560766537E0
1.134646737E0,-3.493520916E-1,1.914258152E-1,1.154776192E1,1.155463093E1
1.137022258E0,3.096312523E0,-3.349951655E-2,8.886942863E0,9.410952498E0
1.139397779E0,-5.350351334E0,2.584248483E-1,9.585647583E0,1.098078697E1
1.141773300E0,4.876572609E0,-4.211367965E-1,1.143769264E1,1.244102607E1
1.144148821E0,-3.373879910E0,3.014956415E-1,8.011170387E0,8.697862740E0
1.146524342E0,4.259224236E-1,1.579262912E-1,1.183968639E1,1.184839755E1
1.148899862E0,1.655833244E0,-4.498506486E-1,8.819944382E0,8.985297337E0
1.151275383E0,-3.976871252E0,7.657032460E-2,1.032263660E1,1.106246783E1
1.153650904E0,4.776073933E0,-2.727817893E-1,1.067198944E1,1.169515501E1
1.156026425E0,-4.646861553E0,5.120640397E-1,8.097311974E0,9.349972892E0
1.158401946E0,1.555334687E0,-2.488535494E-1,1.198325539E1,1.208633128E1
1.160777467E0,4.594219327E-1,-6.652047038E-1,8.642875671E0,8.680602841E0
1.163152987E0,-2.880958557E0,2.679961324E-1,1.090170002E1,1.127913150E1
1.165528508E0,4.402793884E0,-1.339980662E-1,9.863214493E0,1.080210857E1
1.167904029E0,-5.694917679E0,6.221339107E-1,8.590232849E0,1.032527183E1
1.170279550E0,3.101098061E0,-7.322037220E-1,1.195932770E1,1.237652821E1
1.172655071E0,-6.987041831E-1,-3.445664644E-1,8.575876236E0,8.611188466E0
1.175030592E0,-2.019542217E0,2.727817893E-1,1.117926693E1,1.136349285E1
1.177406112E0,3.857230186E0,-7.178468257E-2,9.131011009E0,9.912554656E0
1.179781633E0,-5.613562107E0,3.302095234E-1,9.279366493E0,1.085024241E1
1.182157154E0,4.541577339E0,-4.785645306E-1,1.172961617E1,1.258724927E1
1.184532675E0,-2.464607239E0,-7.178468257E-2,7.982456207E0,8.354582514E0
1.186908196E0,-6.939185858E-1,3.062812984E-1,1.164347458E1,1.166815459E1
1.189283717E0,3.024527788E0,-3.014956415E-1,8.800801277E0,9.310895289E0
1.191659237E0,-4.445864677E0,2.297109663E-1,9.863214493E0,1.082134372E1
1.194034758E0,4.675575256E0,-1.435693651E-1,1.109791183E1,1.204347389E1
1.196410279E0,-3.737588882E0,3.493520916E-1,7.958528042E0,8.799419647E0
1.198785800E0,9.044869542E-1,-3.828516230E-2,1.184925747E1,1.188379001E1
1.201161321E0,2.014756680E0,-4.259224236E-1,8.896514893E0,9.131737601E0
1.203536842E0,-3.340380430E0,4.546363056E-1,1.033220863E1,1.086827359E1
1.205912362E0,4.555934429E0,9.092725813E-2,1.015992451E1,1.113502907E1
1.208287883E0,-4.852644444E0,2.536391914E-1,8.226524353E0,9.554485536E0
1.210663352E0,3.177668571E0,-2.871387303E-1,1.228475189E1,1.269232663E1
1.213038873E0,3.780659735E-1,-4.785645287E-3,8.441878319E0,8.450341196E0
1.215414394E0,-2.555534601E0,3.924229145E-1,1.056191921E1,1.087377075E1
1.217789914E0,4.426722050E0,-2.775674164E-1,9.762716293E0,1.072303787E1
1.220165435E0,-4.809573650E0,9.092725813E-2,8.863015175E0,1.008430982E1
1.222540956E0,4.532006264E0,-1.004985496E-1,1.224646664E1,1.305852694E1
1.224916477E0,-1.837687731E0,2.249253243E-1,7.929814339E0,8.143073317E0
1.227291998E0,-1.253839016E0,5.072783828E-1,1.116491032E1,1.124654018E1
1.229667519E0,3.713660717E0,-5.120640397E-1,9.308079720E0,1.003463171E1
1.232042987E0,-4.264009953E0,-2.057827413E-1,9.647860527E0,1.055013460E1
1.234418560E0,4.603790760E0,-1.627119333E-1,1.157647610E1,1.245938054E1
1.236794081E0,-3.364308596E0,4.115654826E-1,7.886743546E0,8.584211217E0
1.239169602E0,2.249253243E-1,7.657032460E-2,1.164347458E1,1.164589862E1
1.241545123E0,2.608176708E0,-5.934200287E-1,9.226723671E0,9.606620778E0
1.243920644E0,-3.976871252E0,-9.092725813E-2,9.930213928E0,1.069733244E1
1.246296164E0,4.493721008E0,-1.674975902E-1,1.094955635E1,1.183699152E1
1.248671633E0,-4.642076015E0,3.349951804E-1,8.140382767E0,9.376935698E0
1.251047206E0,2.177468538E0,-3.254238665E-1,1.210768223E1,1.230622765E1
1.253422727E0,7.704889178E-1,-2.536391914E-1,8.767302513E0,8.804747547E0
1.255798248E0,-3.522234917E0,-1.627119333E-1,1.032742214E1,1.091275685E1
1.258173769E0,4.378865242E0,-3.684946895E-1,1.021735287E1,1.112225466E1
1.260549289E0,-5.010570526E0,2.967100143E-1,8.786444664E0,1.011906437E1
1.262924810E0,3.570091486E0,-1.100698411E-1,1.207896900E1,1.259599781E1
1.265300331E0,-1.512263894E0,-2.871387079E-2,8.149953842E0,8.289120231E0
1.267675852E0,-2.670390129E0,-5.216353536E-1,1.075813103E1,1.109686758E1
1.270051373E0,4.417150497E0,-7.609176040E-1,9.939785004E0,1.090364802E1
1.272426894E0,-4.546362877E0,9.906286001E-1,9.810572624E0,1.085808895E1
1.274802414E0,3.330809116E0,-1.292124242E-1,1.109312534E1,1.158310904E1
1.277177935E0,-3.139383316E0,-4.163511395E-1,8.063812256E0,8.663379478E0
1.279553404E0,-5.407779217E-1,-6.221338734E-2,1.166740322E1,1.168009457E1
1.281928977E0,3.804588079E0,-4.881358147E-1,9.384650230E0,1.013828521E1
1.284304446E0,-5.034498692E0,5.551348329E-1,9.619147301E0,1.087117043E1
1.286679967E0,3.838087559E0,-5.264209956E-2,1.122712421E1,1.186515931E1
1.289055487E0,-4.034298897E0,-3.110669553E-1,7.915457249E0,8.889701553E0
1.291431008E0,1.469193101E0,-2.297109663E-1,1.238525009E1,1.247420199E1
1.293806529E0,2.201396942E0,-1.339980662E-1,8.666803360E0,8.943018755E0
1.296182050E0,-4.656432629E0,6.460621357E-1,1.016471100E1,1.119915670E1
1.298557571E0,4.345366001E0,-1.483550072E-1,1.040399265E1,1.127596018E1
1.300933092E0,-4.259224415E0,-1.292124242E-1,8.279166222E0,9.311406005E0
1.303308612E0,2.718246460E0,-3.014956415E-1,1.230867958E1,1.260886024E1
1.305684133E0,6.125625968E-1,-1.148554832E-1,8.408378601E0,8.431444444E0
1.308059654E0,-3.833301783E0,2.632105052E-1,1.079641533E1,1.145975856E1
1.310435175E0,5.024927616E0,-5.790630579E-1,1.010728264E1,1.130231719E1
1.312810696E0,-4.369294167E0,4.737788737E-1,8.819944382E0,9.854268965E0
1.315186217E0,3.153740168E0,-2.057827413E-1,1.209332561E1,1.249947791E1
1.317561737E0,-8.662018180E-1,-2.727817893E-1,8.111668587E0,8.162345420E0
1.319937258E0,-2.254039049E0,1.435693540E-2,1.118883896E1,1.141363287E1
1.322312779E0,5.106283665E0,-4.307080805E-1,9.958928108E0,1.119999515E1
1.324688300E0,-4.852644444E0,3.684946895E-1,8.949156761E0,1.018682253E1
1.327063821E0,3.656233072E0,-2.775674164E-1,1.198804188E1,1.253627664E1
1.329439342E0,-1.966900229E0,-3.206382394E-1,8.068597794E0,8.311063455E0
1.331814862E0,-3.924229145E-1,3.349951655E-2,1.180618668E1,1.181275420E1
1.334190383E0,3.986442566E0,-2.249253243E-1,9.068798065E0,9.908855337E0
1.336565904E0,-5.111069202E0,7.513462901E-1,9.609575272E0,1.091015520E1
1.338941425E0,4.177868366E0,-5.551348329E-1,1.126540947E1,1.202797611E1
1.341316946E0,-2.766103029E0,-4.929214716E-1,8.288737297E0,8.751997688E0
1.343692467E0,7.704889178E-1,4.785645381E-2,1.204546928E1,1.207018118E1
1.346067987E0,2.455035925E0,9.571290575E-3,8.638090134E0,8.980194550E0
1.348443508E0,-5.111069202E0,6.460621357E-1,1.000678444E1,1.125505040E1
1.350819029E0,4.876572609E0,-7.274180651E-1,1.088734341E1,1.195175066E1
1.353194550E0,-3.761517286E0,-1.770688742E-1,8.130811691E0,8.960494654E0
1.355570071E0,1.564906001E0,4.307080805E-2,1.222253799E1,1.232238698E1
1.357945592E0,1.115055323E0,-1.196411327E-1,8.336593628E0,8.411685663E0
1.360321112E0,-4.326223373E0,1.339980662E-1,1.045663452E1,1.131703891E1
1.362696633E0,5.000999451E0,-4.115654826E-1,1.070548820E1,1.182314930E1
1.365072102E0,-4.608576298E0,3.589234054E-1,8.059026718E0,9.290625014E0
1.367447623E0,2.120040894E0,0.000000000E0,1.227996540E1,1.246162604E1
1.369823144E0,-8.135596663E-2,-3.254238665E-1,8.293522835E0,8.300303639E0
1.372198664E0,-2.852244616E0,2.632105052E-1,1.091127110E1,1.128097585E1
1.374574185E0,4.536791801E0,-2.440679073E-1,9.868000984E0,1.086367767E1
1.376949706E0,-5.350351334E0,3.062812984E-1,8.408378601E0,9.971002875E0
1.379325227E0,3.215953588E0,-1.483550072E-1,1.239482117E1,1.280609068E1
1.381700748E0,-8.183453679E-1,-9.092725813E-2,8.197810173E0,8.239056289E0
1.384076269E0,-2.024327993E0,2.967100143E-1,1.070070267E1,1.089453892E1
1.386451789E0,3.943371773E0,-3.206382394E-1,9.537791252E0,1.032581482E1
1.388827310E0,-5.321637630E0,1.962114573E-1,8.925228119E0,1.039317194E1
1.391202831E0,4.364508629E0,-2.632105052E-1,1.235175037E1,1.310282232E1
1.393578352E0,-2.062613010E0,3.349951804E-1,7.728816986E0,8.006322889E0
1.395953873E0,-1.249053478E0,5.694918036E-1,1.116491032E1,1.124898564E1
1.398329394E0,3.421736479E0,-5.359922647E-1,9.097511292E0,9.734489198E0
1.400704914E0,-4.819144726E0,-1.722832322E-1,9.437292099E0,1.059793940E1
1.403080435E0,4.910071850E0,-8.614161611E-2,1.208375454E1,1.304351754E1
1.405455956E0,-3.239881754E0,7.752745152E-1,7.503891945E0,8.210132683E0
1.407831477E0,-4.977070987E-1,2.536391914E-1,1.144247818E1,1.145610545E1
1.410206998E0,3.110669374E0,-8.757730722E-1,9.102297783E0,9.658937175E0
1.412582519E0,-4.058227062E0,2.632105052E-1,1.011685371E1,1.090363314E1
1.414958039E0,4.622933388E0,-5.264209956E-2,1.099741268E1,1.192968440E1
1.417333560E0,-4.345366001E0,4.067798555E-1,7.633104324E0,8.792721829E0
1.419709081E0,8.997012973E-1,-4.115654826E-1,1.195932770E1,1.200018198E1
1.422084602E0,2.622533560E0,-4.785645306E-1,9.255437851E0,9.631709926E0
1.424460123E0,-4.101297855E0,5.072783828E-1,1.021735287E1,1.102144614E1
1.426835644E0,4.441078663E0,8.135596663E-2,1.025563812E1,1.117622082E1
1.429211164E0,-4.991427898E0,2.871387079E-2,7.982456207E0,9.414604827E0
1.431586685E0,2.522035122E0,-3.158525825E-1,1.249532032E1,1.275121382E1
1.433962206E0,1.191625714E0,-2.201396823E-1,8.504091263E0,8.589994268E0
1.436337727E0,-4.101297855E0,3.876372576E-1,1.038963604E1,1.117655778E1
1.438713248E0,4.488935471E0,-3.062812984E-1,1.007378292E1,1.103292582E1
1.441088717E0,-4.780859470E0,1.914258152E-1,8.709874153E0,9.937563528E0
1.443464289E0,2.995813847E0,-9.571290761E-2,1.222253799E1,1.258469295E1
1.445839758E0,-4.737788737E-1,0.000000000E0,8.078168869E0,8.092050340E0
1.448215331E0,-3.522234917E0,-8.135596663E-2,1.066720295E1,1.123396530E1
1.450590800E0,4.919643402E0,-5.694918036E-1,1.002114105E1,1.117812507E1
1.452966321E0,-4.871787071E0,6.987041831E-1,9.140582085E0,1.038136492E1
1.455341842E0,3.335594654E0,2.009970993E-1,1.170090294E1,1.216871896E1
1.457717362E0,-1.919043779E0,9.092725813E-2,7.968099594E0,8.196438735E0
1.460092883E0,-2.273181438E0,-5.551348329E-1,1.083948612E1,1.108918338E1
1.462468404E0,4.867001057E0,-3.828516304E-1,1.001635551E1,1.114278477E1
1.464843925E0,-5.067998409E0,1.014556766E0,9.198010445E0,1.055070279E1
1.467219446E0,3.373879910E0,3.014956415E-1,1.148554897E1,1.197463154E1
1.469594967E0,-2.560320139E0,-3.876372576E-1,7.795815945E0,8.214636212E0
1.471970487E0,-7.178468108E-1,-7.178468257E-2,1.145204926E1,1.147475007E1
1.474346008E0,4.187439442E0,-2.823530734E-1,9.513862610E0,1.039845922E1
1.476721529E0,-5.422136307E0,8.039883971E-1,9.150154114E0,1.066636207E1
1.479097050E0,3.838087559E0,-2.823530734E-1,1.168654537E1,1.230390109E1
1.481472519E0,-2.335394859E0,-2.536391914E-1,8.169096947E0,8.500149817E0
1.483848092E0,-1.531406492E-1,2.344966233E-1,1.156690502E1,1.157029526E1
1.486223612E0,3.421736479E0,-2.871387079E-2,8.963513374E0,9.594460747E0
1.488599133E0,-5.474778175E0,2.967100143E-1,9.518648148E0,1.098480293E1
1.490974654E0,4.910071850E0,-3.828516304E-1,1.157169056E1,1.257614422E1
1.493350175E0,-2.919243574E0,3.014956415E-1,7.791030407E0,8.325445181E0
1.495725696E0,2.775674164E-1,1.196411327E-1,1.171525955E1,1.171915799E1
1.498101164E0,2.555534601E0,-4.211367965E-1,8.963513374E0,9.330202855E0
1.500476737E0,-4.469792843E0,3.780659735E-1,1.013121128E1,1.107986570E1
1.502852258E0,5.173282623E0,-1.196411327E-1,1.093041420E1,1.209343300E1
1.505227779E0,-3.991228104E0,3.302095234E-1,7.704888821E0,8.683562163E0
1.507603300E0,8.901300430E-1,-2.344966233E-1,1.202154064E1,1.205673088E1
1.509978821E0,2.134397745E0,-5.264210105E-1,8.810373306E0,9.080498368E0
1.512354342E0,-3.622733593E0,8.374879360E-1,1.075334454E1,1.137804919E1
1.514729862E0,4.699503899E0,1.818545163E-1,9.925428391E0,1.098328442E1
1.517105383E0,-4.895715237E0,-9.571290575E-3,7.810173035E0,9.217750383E0
1.519480904E0,2.110469580E0,-2.584248483E-1,1.258624744E1,1.276457951E1
1.521856425E0,1.603191137E0,-1.770688742E-1,8.642875671E0,8.792091621E0
1.524231894E0,-3.622733593E0,5.168496966E-1,1.005942631E1,1.070436313E1
1.526607467E0,4.402793884E0,-1.722832322E-1,1.015035343E1,1.106543945E1
1.528982935E0,-4.977071285E0,5.742774159E-2,8.207381248E0,9.598731348E0
1.531358456E0,3.354737282E0,-5.742774159E-2,1.276331615E1,1.319696175E1
1.533733977E0,1.244267747E-1,6.747759581E-1,7.977670670E0,8.007123949E0
1.536109498E0,-3.622733593E0,4.785645287E-3,1.016949654E1,1.079550283E1
1.538485019E0,4.541577339E0,-5.216353536E-1,9.963713646E0,1.096237282E1
1.540860539E0,-4.560719967E0,4.881358147E-1,9.164510727E0,1.024825351E1
1.543236060E0,3.771088600E0,2.871387079E-2,1.189711380E1,1.248051483E1
1.545611581E0,-1.765903115E0,1.722832322E-1,8.001599312E0,8.195955519E0
1.547987102E0,-2.622533560E0,-2.871387303E-1,1.071984577E1,1.103971124E1
1.550362623E0,4.642076015E0,-6.556333899E-1,9.906285286E0,1.095961738E1
1.552738144E0,-4.560719967E0,1.411765337E0,9.446864128E0,1.058472909E1
1.555113664E0,3.244667530E0,-2.967100143E-1,1.125105190E1,1.171332887E1
1.557489185E0,-2.603390932E0,-5.455635786E-1,7.896314621E0,8.332290715E0
1.559864706E0,-1.028913736E0,2.823530734E-1,1.182532978E1,1.187336562E1
1.562240227E0,4.460221291E0,-2.392822690E-2,9.078369141E0,1.011488669E1
1.564615748E0,-5.565705299E0,-8.135596663E-2,9.073583603E0,1.064488674E1
1.566991269E0,3.795016766E0,-1.435693651E-1,1.211725426E1,1.269844932E1
1.569366789E0,-2.809173822E0,-8.614161611E-2,7.613961697E0,8.116113027E0
1.571742310E0,2.871387079E-2,2.392822690E-2,1.189232826E1,1.189238700E1
1.574117831E0,3.086741209E0,-2.249253243E-1,9.140582085E0,9.650326603E0
1.576493352E0,-5.249852657E0,5.742774159E-2,9.466006279E0,1.082448732E1
1.578868873E0,4.350151539E0,-2.775674164E-1,1.140419292E1,1.220886884E1
1.581244394E0,-3.278167009E0,4.785645381E-2,8.059026718E0,8.700378200E0
1.583619914E0,9.667003751E-1,1.196411327E-1,1.179661560E1,1.183676321E1
1.585995435E0,1.761117458E0,-2.967100143E-1,8.705088615E0,8.886401934E0
1.588370956E0,-4.699503899E0,-2.584248483E-1,9.944570541E0,1.100211814E1
1.590746477E0,5.087141037E0,-4.163511395E-1,1.112183952E1,1.223714291E1
1.593121998E0,-3.933800459E0,1.091127157E0,8.221738815E0,9.179451709E0
1.595497519E0,1.244267821E0,-2.727817893E-1,1.156690502E1,1.163683394E1
1.597873039E0,9.906286001E-1,-8.422735929E-1,8.848658562E0,8.943686498E0
1.600248560E0,-3.287738323E0,2.919243574E-1,1.085862923E1,1.134919697E1
1.602624081E0,5.273781300E0,-8.135596663E-2,9.891928673E0,1.121024714E1
1.604999602E0,-5.154139996E0,6.269195080E-1,8.346165657E0,9.829377821E0
1.607375123E0,2.349751949E0,-7.704889178E-1,1.202154064E1,1.227324027E1
1.609750592E0,5.072783828E-1,-6.556333899E-1,8.633303642E0,8.673010912E0
1.612126112E0,-2.301895380E0,9.571290612E-1,1.133240795E1,1.160337401E1
1.614501633E0,4.441078663E0,-1.100698411E-1,9.207581520E0,1.022325058E1
1.616877154E0,-5.450850010E0,-2.775674164E-1,8.585447311E0,1.017343182E1
1.619252675E0,3.938585997E0,-1.196411327E-1,1.270588779E1,1.330287030E1
1.621628196E0,-2.249253243E-1,4.977070987E-1,8.054241180E0,8.072738367E0
1.624003717E0,-2.450250387E0,-5.264210105E-1,1.033699417E1,1.063646062E1
1.626379237E0,4.388436794E0,-5.168496966E-1,9.982855797E0,1.091709306E1
1.628754758E0,-4.651647091E0,9.906286001E-1,9.662218094E0,1.076929079E1
1.631130279E0,4.488935471E0,-1.722832322E-1,1.133240795E1,1.219031145E1
1.633505800E0,-2.392822742E0,-2.440679073E-1,8.011170387E0,8.364449820E0
1.635881321E0,-7.178468108E-1,0.000000000E0,1.138983536E1,1.141243416E1
1.638256842E0,3.967299938E0,-4.737788737E-1,9.317651749E0,1.013817387E1
1.640632362E0,-4.704289436E0,4.737788737E-1,9.863214493E0,1.093790682E1
1.643007883E0,4.857429981E0,4.785645381E-2,1.126540947E1,1.226810363E1
1.645383404E0,-3.345165968E0,3.110669553E-1,7.920242786E0,8.603321672E0
1.647758925E0,4.785645381E-2,-5.838487148E-1,1.149990559E1,1.151481646E1
1.650134446E0,3.259024382E0,-6.987041831E-1,9.384650230E0,9.958970198E0
1.652509967E0,-4.086941242E0,1.426122308E0,1.062891865E1,1.147653367E1
1.654885487E0,4.335794449E0,-1.770688742E-1,1.013121128E1,1.102142953E1
1.657261008E0,-4.536791801E0,-6.029912829E-1,7.963313580E0,9.184794037E0
1.659636529E0,2.048256159E0,1.579262912E-1,1.282552910E1,1.298901423E1
1.662012050E0,1.823330879E0,7.657032460E-2,8.403593063E0,8.599463639E0
1.664387571E0,-4.407579422E0,-4.402793646E-1,9.973284721E0,1.091269950E1
1.666763092E0,4.704289436E0,-4.546363056E-1,1.067198944E1,1.167169190E1
1.669138612E0,-4.498506546E0,6.460621357E-1,8.738588333E0,9.849714894E0
1.671514133E0,2.847458839E0,-1.674975902E-1,1.195932770E1,1.229477923E1
1.673889654E0,-3.349951804E-1,-2.009970993E-1,8.446663857E0,8.455693461E0
1.676265175E0,-3.215953588E0,-4.163511395E-1,1.055713367E1,1.104394754E1
1.678640696E0,4.618147850E0,-5.359922647E-1,1.012642574E1,1.114266914E1
1.681016217E0,-4.666004181E0,1.134197950E0,9.322437286E0,1.048645970E1
1.683391737E0,3.010170937E0,-5.359922647E-1,1.160997581E1,1.200583005E1
1.685767206E0,-1.607976794E0,-7.992027402E-1,8.087740898E0,8.284676652E0
1.688142675E0,-1.722832322E0,5.838487148E-1,1.164826107E1,1.178944513E1
1.690518248E0,4.345366001E0,-2.775674164E-1,9.040083885E0,1.003406030E1
1.692893769E0,-5.503491879E0,-2.201396823E-1,9.145368576E0,1.067589110E1
1.695269289E0,4.120440483E0,-1.435693651E-1,1.211246777E1,1.279494108E1
1.697644810E0,-2.756531715E0,1.627119333E-1,7.585247993E0,8.072231996E0
1.700020331E0,-6.173482537E-1,-2.392822690E-2,1.157647610E1,1.159295002E1
1.702395852E0,3.407379389E0,-3.732803464E-1,9.523433685E0,1.012152961E1
1.704771373E0,-4.694717884E0,-1.339980662E-1,9.336793900E0,1.045150955E1
1.707146894E0,4.144368649E0,-8.614161611E-2,1.133240795E1,1.206675938E1
1.709522414E0,-3.804588079E0,2.057827413E-1,7.944170952E0,8.810623650E0
1.711897935E0,1.344766378E0,3.828516230E-2,1.203589821E1,1.211085084E1
1.714273456E0,1.756331801E0,-1.531406492E-1,8.599804878E0,8.778655785E0
1.716648977E0,-4.508078098E0,-2.823530734E-1,1.003071213E1,1.100080348E1
1.719024498E0,4.642076015E0,-3.780659735E-1,1.074377346E1,1.170984508E1
1.721400019E0,-3.900300980E0,1.048056364E0,8.733802795E0,9.622373987E0
1.723775539E0,1.832902193E0,-3.014956415E-1,1.154776192E1,1.169620602E1
1.726151060E0,2.153540403E-1,-6.269195080E-1,8.513663292E0,8.539430196E0
1.728526529E0,-3.268595695E0,3.445664644E-1,1.088255692E1,1.136804684E1
1.730902102E0,5.245067120E0,-4.402793646E-1,9.872786522E0,1.118822992E1
1.733277623E0,-5.154139996E0,7.034898400E-1,8.657232285E0,1.009988752E1
1.735653144E0,3.096312523E0,1.339980662E-1,1.208854008E1,1.247949951E1
1.738028664E0,-1.148554921E0,-5.072783828E-1,7.824530125E0,7.924631312E0
1.740404185E0,-1.933400750E0,-1.196411327E-1,1.119841003E1,1.136471468E1
1.742779706E0,4.862215519E0,-3.206382394E-1,9.987641335E0,1.111291717E1
1.745155227E0,-5.245067120E0,6.460621357E-1,8.719446182E0,1.019592404E1
1.747530748E0,3.651447296E0,-2.201396823E-1,1.183490086E1,1.238734867E1
1.749906269E0,-1.919043779E0,-4.642075896E-1,7.977670670E0,8.218360361E0
1.752281789E0,-3.732803464E-1,2.105683982E-1,1.176790142E1,1.177570300E1
1.754657310E0,3.804588079E0,-1.531406492E-1,9.078369141E0,9.844548175E0
1.757032831E0,-5.268995285E0,7.704889178E-1,9.470791817E0,1.086516738E1
1.759408352E0,4.369294167E0,-5.838487148E-1,1.135633659E1,1.218187144E1
1.761783873E0,-2.627319336E0,-4.450650215E-1,8.159524918E0,8.583631903E0
1.764159394E0,5.072783828E-1,1.435693651E-1,1.208854008E1,1.210003077E1
1.766534914E0,2.699103832E0,1.435693540E-2,8.580661774E0,8.995172266E0
1.768910435E0,-5.120640278E0,5.312066078E-1,9.891928673E0,1.115138512E1
1.771285956E0,5.087141037E0,-6.747759581E-1,1.105005455E1,1.218351477E1
1.773661477E0,-3.637090445E0,-2.919243574E-1,7.948956966E0,8.746402894E0
1.776036998E0,1.330409408E0,2.105683982E-1,1.251924801E1,1.259150106E1
1.778412467E0,1.320838094E0,-1.148554832E-1,8.288737297E0,8.394103349E0
1.780788039E0,-4.101297855E0,3.684946895E-1,1.062413216E1,1.139423611E1
1.783163508E0,4.919643402E0,-2.344966233E-1,1.053799057E1,1.163215909E1
1.785539029E0,-4.704289436E0,-1.483550072E-1,7.848458290E0,9.151537895E0
1.787914550E0,2.139183521E0,-7.657032460E-2,1.270110226E1,1.288021614E1
1.790290071E0,4.977070987E-1,-3.206382394E-1,8.183453560E0,8.204842071E0
1.792665592E0,-3.192025423E0,4.594219327E-1,1.067198944E1,1.114860769E1
1.795041112E0,4.345366001E0,-2.727817893E-1,1.002592659E1,1.093049951E1
1.797416633E0,-5.163711071E0,-5.742774159E-2,8.370093346E0,9.834921077E0
1.799792154E0,3.125026464E0,-1.818545163E-1,1.272503090E1,1.310439899E1
1.802167675E0,-2.440679073E-1,5.503492355E-1,8.188239098E0,8.210341829E0
1.804543196E0,-3.014956474E0,1.435693540E-2,1.038006496E1,1.080906644E1
1.806918717E0,4.230510235E0,-6.173482537E-1,9.920642853E0,1.080266126E1
1.809294237E0,-5.039284706E0,5.024927258E-1,9.073583603E0,1.039118899E1
1.811669758E0,4.268795490E0,-1.196411327E-1,1.196411324E1,1.270342216E1
1.814045279E0,-2.139183521E0,2.919243574E-1,7.872386456E0,8.163075062E0
1.816420800E0,-1.947757602E0,-9.571290575E-3,1.104526901E1,1.121569520E1
1.818796321E0,4.029513359E0,-5.934200287E-1,9.384650230E0,1.023038539E1
1.821171842E0,-4.460221291E0,9.284151793E-1,9.973284721E0,1.096457646E1
1.823547362E0,4.106083870E0,2.679961324E-1,1.098784161E1,1.173304776E1
1.825922883E0,-3.235096216E0,-1.531406492E-1,7.537391186E0,8.203753133E0
1.828298404E0,-5.599204898E-1,4.785645381E-2,1.175354481E1,1.176697143E1
1.830673925E0,3.866801500E0,-5.072783828E-1,9.288937569E0,1.007441543E1
1.833049446E0,-4.766502857E0,7.848458290E-1,9.690931320E0,1.082818924E1
1.835424967E0,4.197010994E0,2.967100143E-1,1.115055370E1,1.191796065E1
1.837800487E0,-4.000799656E0,-2.392822690E-2,7.642675400E0,8.626555379E0
1.840176008E0,8.757730722E-1,-2.632105052E-1,1.209811115E1,1.213262345E1
1.842551529E0,2.890529871E0,-3.014956415E-1,9.102297783E0,9.554992804E0
1.844927050E0,-4.594219685E0,6.939185858E-1,9.939785004E0,1.097213304E1
1.847302571E0,4.254438877E0,-4.785645287E-3,1.060499001E1,1.142655180E1
1.849678092E0,-4.388436794E0,-2.967100143E-1,7.972885132E0,9.105674695E0
1.852053612E0,2.297109842E0,4.785645287E-3,1.270110226E1,1.290715829E1
1.854429133E0,1.143769264E0,1.052841991E-1,8.236095428E0,8.315801873E0
1.856804602E0,-4.407579422E0,7.130611539E-1,1.034177971E1,1.126444052E1
1.859180175E0,4.517649174E0,-5.503492355E-1,1.010249710E1,1.108027464E1
1.861555696E0,-4.412364960E0,-1.244267747E-1,8.432307243E0,9.517786087E0
1.863931164E0,2.732603550E0,9.571290575E-3,1.252881908E1,1.282335843E1
1.866306737E0,-3.972085714E-1,1.914258152E-1,7.877171993E0,7.889502969E0
1.868682206E0,-3.742374659E0,4.929214716E-1,1.070070267E1,1.134695454E1
1.871057727E0,4.867001057E0,-5.886343718E-1,1.004506969E1,1.117754959E1
1.873433248E0,-5.005784988E0,-1.627119333E-1,8.384450912E0,9.766441298E0
1.875808769E0,3.115455151E0,5.742774159E-2,1.265803146E1,1.303591651E1
1.878184289E0,-1.579262972E0,9.092725813E-2,7.551748276E0,7.715649119E0
1.880559810E0,-2.464607239E0,3.158525825E-1,1.124626637E1,1.151748926E1
1.882935331E0,4.488935471E0,-1.627119333E-1,9.738788605E0,1.072478533E1
1.885310852E0,-5.407779217E0,1.531406492E-1,8.528019905E0,1.009924015E1
1.887686373E0,3.531806231E0,-2.153540403E-1,1.226560879E1,1.276578206E1
1.890061894E0,-2.196611166E0,-1.579262912E-1,7.814958572E0,8.119336107E0
1.892437414E0,-1.215553880E0,4.354937077E-1,1.151426220E1,1.158643431E1
1.894812935E0,3.651447296E0,-1.100698411E-1,9.169296265E0,9.870216650E0
1.897188456E0,-5.623133183E0,8.614161611E-2,9.059226990E0,1.066286269E1
1.899563977E0,4.220939159E0,-3.206382394E-1,1.204546928E1,1.276763355E1
1.901939498E0,-2.268395901E0,2.727817893E-1,7.896314621E0,8.220207690E0
1.904315019E0,-6.747759581E-1,5.024927258E-1,1.129412270E1,1.132541518E1
1.906690539E0,3.192025423E0,-6.699903309E-2,9.006584167E0,9.555735112E0
1.909066060E0,-5.307280540E0,-2.344966233E-1,9.178867340E0,1.060536756E1
1.911441581E0,5.120640278E0,-4.019941986E-1,1.206461143E1,1.311249043E1
1.913817102E0,-3.014956474E0,9.236295223E-1,7.714460373E0,8.334023811E0
1.916192623E0,-3.780659735E-1,7.657032460E-2,1.124148083E1,1.124809709E1
1.918568144E0,2.904886723E0,-8.231309652E-1,9.231510162E0,9.712707724E0
1.920943664E0,-4.015156269E0,4.785645306E-1,1.024606609E1,1.101509756E1
1.923319185E0,5.106283665E0,2.871387079E-2,1.081077290E1,1.195607661E1
1.925694706E0,-4.220939159E0,4.881358147E-1,7.810173035E0,8.891198277E0
1.928070227E0,6.364908218E-1,-4.259224236E-1,1.173440266E1,1.175936802E1
1.930445748E0,2.924029350E0,-6.747759581E-1,9.178867340E0,9.656959971E0
1.932821269E0,-3.732803345E0,1.000199914E0,1.056670475E1,1.125119860E1
1.935196789E0,4.350151539E0,1.004985496E-1,1.014078236E1,1.103491664E1
1.937572310E0,-4.646861553E0,-3.876372576E-1,7.853243828E0,9.133292044E0
1.939947831E0,2.110469580E0,-1.148554832E-1,1.266281700E1,1.283799860E1
1.942323352E0,2.407179594E0,2.919243574E-1,8.638090134E0,8.971974955E0
1.944698873E0,-4.541577339E0,1.435693540E-2,9.561718941E0,1.058549007E1
1.947074394E0,4.627718925E0,-4.546363056E-1,1.078205872E1,1.174202993E1
1.949449914E0,-4.302295208E0,2.775674164E-1,8.417949677E0,9.457730409E0
1.951825383E0,2.991028309E0,-1.100698411E-1,1.231346512E1,1.267200809E1
1.954200904E0,4.929214716E-1,4.785645287E-3,8.317451477E0,8.332046180E0
1.956576477E0,-3.972085476E0,-6.699903309E-2,1.045663452E1,1.118584630E1
1.958951946E0,4.819144726E0,-5.838487148E-1,1.019342422E1,1.129030259E1
1.961327467E0,-4.254438877E0,4.402793646E-1,8.997013092E0,9.961944622E0
1.963702987E0,3.077169895E0,1.914258115E-2,1.194497108E1,1.233497771E1
1.966078508E0,-6.508477330E-1,6.699903309E-2,8.135597229E0,8.161864610E0
1.968454029E0,-3.416950703E0,-5.264210105E-1,1.054277611E1,1.109517009E1
1.970829550E0,5.297709465E0,-8.614161611E-1,1.045184898E1,1.174942171E1
1.973205071E0,-4.656432629E0,1.229910851E0,9.006584167E0,1.021340315E1
1.975580592E0,2.660818815E0,-3.541377485E-1,1.156211948E1,1.186962414E1
1.977956112E0,-1.435693622E0,-7.800601721E-1,8.226524353E0,8.387217237E0
1.980331633E0,-1.880758643E0,2.249253243E-1,1.160040379E1,1.175402963E1
1.982707154E0,4.905286312E0,-1.196411327E-1,9.322437286E0,1.053489368E1
1.985082675E0,-5.728417397E0,1.148554832E-1,8.662017822E0,1.038549519E1
1.987458196E0,3.479164124E0,-3.972085714E-1,1.247617722E1,1.295829293E1
1.989833717E0,-1.445264935E0,-3.637090325E-1,7.925028801E0,8.063941746E0
1.992209237E0,-1.320838094E0,1.818545163E-1,1.141376400E1,1.149137472E1
1.994584758E0,4.010370731E0,-2.297109663E-1,9.537791252E0,1.034916917E1
1.996960227E0,-5.584847927E0,7.178468257E-2,8.925228119E0,1.052878798E1
1.999335800E0,4.201796532E0,-4.211367965E-1,1.225125217E1,1.295861220E1
2.001711321E0,-1.799402595E0,3.828516230E-2,7.920242786E0,8.122164813E0
2.004086842E0,-9.619147182E-1,3.158525825E-1,1.131805134E1,1.136324465E1
2.006462362E0,3.397808075E0,-4.594219327E-1,9.102297783E0,9.726664030E0
2.008837883E0,-5.206781864E0,-1.196411327E-1,9.399007797E0,1.074552181E1
2.011213404E0,5.077569485E0,-3.541377485E-1,1.210289669E1,1.312963190E1
2.013588925E0,-2.761317253E0,8.853443861E-1,7.724031448E0,8.250416321E0
2.015964446E0,-7.513462901E-1,-1.196411327E-1,1.109791183E1,1.112395983E1
2.018339967E0,3.192025423E0,-8.518448472E-1,9.269794464E0,9.840922485E0
2.020715487E0,-4.015156269E0,4.354937077E-1,1.022213840E1,1.099105310E1
2.023091008E0,5.039284706E0,-3.828516230E-2,1.076770210E1,1.188861912E1
2.025466529E0,-3.991228104E0,5.886343718E-1,7.800601959E0,8.782128622E0
2.027841998E0,4.402793646E-1,-1.196411327E-1,1.162911797E1,1.163806447E1
2.030217571E0,3.125026464E0,-9.619147182E-1,9.202795982E0,9.766397710E0
2.032593039E0,-3.780659676E0,5.120640397E-1,1.035135078E1,1.103204696E1
2.034968560E0,4.905286312E0,9.571290575E-3,1.054756260E1,1.163241171E1
2.037344133E0,-4.618147850E0,4.785645306E-1,8.011170387E0,9.259328515E0
2.039719602E0,1.536192179E0,-6.795616150E-1,1.176311588E1,1.188244864E1
2.042095123E0,2.904886723E0,-5.694918036E-1,9.336793900E0,9.794815369E0
2.044470644E0,-3.871587038E0,4.737788737E-1,1.014078236E1,1.086504116E1
2.046846164E0,4.694717884E0,4.785645381E-2,1.044706345E1,1.145354971E1
2.049221685E0,-4.694717884E0,-1.579262912E-1,8.063812256E0,9.332222930E0
2.051597206E0,2.761317253E0,-3.445664644E-1,1.263410378E1,1.293693075E1
2.053972727E0,1.641476393E0,-3.493520916E-1,8.360522270E0,8.527298767E0
2.056348248E0,-4.067798615E0,2.105683982E-1,1.030349445E1,1.107940985E1
2.058723769E0,4.776073933E0,-5.072783828E-1,1.045663452E1,1.150692918E1
2.061099289E0,-4.115654945E0,3.158525825E-1,8.652446747E0,9.586616358E0
2.063474810E0,2.876172781E0,-2.009970993E-1,1.210768223E1,1.244623391E1
2.065850331E0,4.211367965E-1,-4.211367965E-1,8.293522835E0,8.314880240E0
2.068225852E0,-3.584448338E0,-5.742774159E-2,1.059063339E1,1.118092498E1
2.070601373E0,5.230710506E0,-6.604190469E-1,1.039442158E1,1.165506266E1
2.072976894E0,-4.642076015E0,5.790630579E-1,8.762516975E0,9.933070397E0
2.075352414E0,3.019742250E0,-2.871387079E-2,1.205025482E1,1.242289455E1
2.077727935E0,-7.657032609E-1,-5.790630579E-1,8.039883614E0,8.096995988E0
2.080103456E0,-2.526820660E0,-2.153540403E-1,1.096869946E1,1.125804458E1
2.082478977E0,5.058426857E0,-4.450650215E-1,1.024606609E1,1.143536775E1
2.084854498E0,-5.163711071E0,5.407779217E-1,8.618947029E0,1.006193822E1
2.087230019E0,3.139383316E0,-4.642075896E-1,1.207896900E1,1.248890341E1
2.089605539E0,-1.253839016E0,-6.173482537E-1,8.159524918E0,8.278349958E0
2.091981060E0,-1.593619823E0,3.732803464E-1,1.149990559E1,1.161579919E1
2.094356581E0,4.283152580E0,-5.742774159E-2,9.288937569E0,1.022903002E1
2.096732102E0,-5.804987907E0,-6.699903309E-2,8.810373306E0,1.055106873E1
2.099107623E0,3.909872293E0,-5.168496966E-1,1.241874981E1,1.302994942E1
2.101483144E0,-1.536192179E0,-8.135596663E-2,8.030312538E0,8.176333204E0
2.103858664E0,-1.282552958E0,2.153540403E-1,1.124148083E1,1.131645751E1
2.106234185E0,3.426522017E0,-5.072783828E-1,9.375079155E0,9.994523183E0
2.108609706E0,-5.374279499E0,-9.571290761E-2,9.284152031E0,1.072788516E1
2.110985227E0,4.694717884E0,-3.924229145E-1,1.217946720E1,1.305885880E1
2.113360696E0,-2.684746981E0,6.843472719E-1,7.781459332E0,8.259982256E0
2.115736269E0,-1.038485050E0,-7.178468257E-2,1.118405342E1,1.123239312E1
2.118111737E0,3.034099102E0,-8.757730722E-1,9.288937569E0,9.811070125E0
2.120487310E0,-4.441078663E0,3.637090325E-1,1.025563812E1,1.118184141E1
2.122862831E0,4.919643402E0,-1.579262912E-1,1.098305607E1,1.203558692E1
2.125238352E0,-4.125226021E0,2.632105052E-1,7.877171993E0,8.895875904E0
2.127613821E0,1.387837082E-1,-4.689932466E-1,1.181575775E1,1.182587615E1
2.129989342E0,2.938386202E0,-7.848458290E-1,9.245866776E0,9.733249657E0
2.132364862E0,-3.900300980E0,9.954141974E-1,1.044706345E1,1.119572828E1
2.134740383E0,4.158725739E0,-8.135596663E-2,1.043749237E1,1.123578504E1
2.137115904E0,-4.603790760E0,-5.264210105E-1,7.771887779E0,9.048438987E0
2.139491425E0,1.933400750E0,6.699903309E-2,1.279681587E1,1.294221866E1
2.141866946E0,2.373680115E0,2.249253243E-1,8.408378601E0,8.739895845E0
2.144242467E0,-4.584648132E0,-5.072783828E-1,9.820143700E0,1.084949548E1
2.146617987E0,4.704289436E0,-3.637090325E-1,1.101177025E1,1.198005456E1
2.148993508E0,-4.192225456E0,7.417750359E-1,8.331808090E0,9.356495633E0
2.151369029E0,2.689532757E0,-1.770688742E-1,1.198804188E1,1.228731410E1
2.153744550E0,3.828516304E-1,-6.364908218E-1,8.513663292E0,8.546002492E0
2.156120071E0,-3.412165165E0,7.657032460E-2,1.051884842E1,1.105870274E1
2.158495592E0,4.862215519E0,-4.211367965E-1,1.029392338E1,1.139224975E1
2.160871112E0,-4.622933388E0,4.354937077E-1,8.671588898E0,9.836545221E0
2.163246633E0,3.215953588E0,1.435693540E-2,1.209332561E1,1.251363608E1
2.165622154E0,-6.364908218E-1,-2.775674164E-1,7.987242222E0,8.017368804E0
2.167997675E0,-2.900100946E0,-2.392822653E-1,1.077727318E1,1.116321901E1
2.170373196E0,5.130211830E0,-7.130611539E-1,1.026999474E1,1.150218768E1
2.172748717E0,-4.642076015E0,1.129412293E0,8.906085968E0,1.010657257E1
2.175124237E0,3.091526747E0,-3.828516230E-2,1.182054424E1,1.221819420E1
2.177499758E0,-1.813759565E0,-6.652047038E-1,7.872386456E0,8.105966294E0
2.179875279E0,-1.478764415E0,0.000000000E0,1.145204926E1,1.154712849E1
2.182250800E0,4.862215519E0,-3.302095234E-1,9.748359680E0,1.089865563E1
2.184626321E0,-5.398207664E0,7.704889178E-1,8.882157326E0,1.042242860E1
2.187001842E0,3.503092289E0,-8.614161611E-2,1.181575775E1,1.232441509E1
2.189377362E0,-2.464607239E0,-6.747759581E-1,7.757531166E0,8.167551728E0
2.191752883E0,-3.110669553E-1,1.387837082E-1,1.192582798E1,1.193069137E1
2.194128404E0,3.881158352E0,-2.871387079E-2,8.973084450E0,9.776525926E0
2.196503925E0,-5.833701611E0,7.609176040E-1,9.269794464E0,1.097907826E1
2.198879446E0,4.144368649E0,-6.508477330E-1,1.149990559E1,1.224121002E1
2.201254967E0,-2.550748825E0,-1.818545163E-1,8.283951759E0,8.669674007E0
2.203630487E0,-4.785645381E-2,2.344966233E-1,1.166261768E1,1.166507309E1
2.206006008E0,2.785245657E0,1.435693540E-2,8.819944382E0,9.249282047E0
2.208381529E0,-5.560919762E0,1.100698411E-1,9.662218094E0,1.114873995E1
2.210756998E0,4.996213913E0,-4.546363056E-1,1.155254745E1,1.259484817E1
2.213132519E0,-3.282952785E0,4.450650215E-1,7.905886173E0,8.571983321E0
2.215508039E0,3.110669553E-1,4.211367965E-1,1.181575775E1,1.182735178E1
2.217883560E0,2.000399828E0,-4.354937077E-1,8.676374435E0,8.914635583E0
2.220259081E0,-4.431507587E0,5.264209956E-2,9.973284721E0,1.091363545E1
2.222634602E0,5.077569485E0,-1.674975902E-1,1.125105190E1,1.234487490E1
2.225010123E0,-4.211368084E0,6.939185858E-1,7.771887779E0,8.866757231E0
2.227385644E0,8.518448472E-1,2.632105052E-1,1.200718403E1,1.204024035E1
2.229761164E0,1.732403636E0,-6.843472719E-1,8.705088615E0,8.902141391E0
2.232136685E0,-3.608376503E0,5.024927258E-1,1.025563812E1,1.088351934E1
2.234512206E0,4.723432064E0,-5.742774159E-2,1.056191921E1,1.157014459E1
2.236887727E0,-5.000999451E0,1.531406492E-1,7.762316704E0,9.235096544E0
2.239263248E0,2.134397745E0,-2.871387079E-2,1.258146191E1,1.276125628E1
2.241638769E0,1.507478237E0,-8.135596663E-2,8.518448830E0,8.651189507E0
2.244014289E0,-3.756731510E0,5.694918036E-1,1.024128056E1,1.092342345E1
2.246389810E0,4.484149456E0,-4.163511395E-1,1.030349445E1,1.124468508E1
2.248765331E0,-4.929214478E0,-4.785645287E-3,8.207381248E0,9.573833361E0
2.251140852E0,3.297309637E0,-8.135596663E-2,1.276810169E1,1.318723968E1
2.253516373E0,2.919243574E-1,5.312066078E-1,8.006384850E0,8.029296274E0
2.255891894E0,-3.900300980E0,-5.264209956E-2,1.026042366E1,1.097685805E1
2.258267414E0,4.704289436E0,-6.508477330E-1,1.017906761E1,1.123242446E1
2.260642935E0,-4.335794449E0,4.977070987E-1,9.006584167E0,1.000826580E1
2.263018456E0,3.574877024E0,0.000000000E0,1.192582798E1,1.245010517E1
2.265393977E0,-1.186840057E0,2.153540403E-1,8.078168869E0,8.167727895E0
2.267769498E0,-3.163311481E0,-1.770688742E-1,1.065284634E1,1.111400144E1
2.270145019E0,5.072783947E0,-8.901300430E-1,1.015992451E1,1.139076531E1
2.272520539E0,-4.522434711E0,1.167697430E0,9.145368576E0,1.026906517E1
2.274896060E0,3.115455151E0,2.871387079E-2,1.156690502E1,1.197915594E1
2.277271581E0,-2.038684845E0,-5.982056856E-1,7.910671711E0,8.191020257E0
2.279647102E0,-1.875972986E0,1.387837082E-1,1.131805134E1,1.147330910E1
2.282022623E0,5.044070244E0,-3.014956415E-1,9.710074425E0,1.094619064E1
2.284398144E0,-5.541777134E0,8.231309652E-1,8.743373871E0,1.038438371E1
2.286773664E0,3.326023579E0,-3.828516230E-2,1.203111267E1,1.248245051E1
2.289149185E0,-2.057827473E0,-6.221339107E-1,7.795815945E0,8.086807204E0
2.291524706E0,-1.215553880E0,2.153540403E-1,1.159083271E1,1.165638673E1
2.293900227E0,4.364508629E0,-4.307080805E-2,9.308079720E0,1.028061957E1
2.296275748E0,-6.082555294E0,1.071984529E0,8.858229637E0,1.079883614E1
2.298651269E0,3.670589924E0,-5.312066078E-1,1.168175983E1,1.225638298E1
2.301026737E0,-1.751546144E0,-4.450650215E-1,8.188239098E0,8.385300012E0
2.303402258E0,-1.071984529E0,4.689932466E-1,1.143769264E1,1.149738746E1
2.305777727E0,3.756731510E0,2.823530734E-1,8.982656479E0,9.740681307E0
2.308153352E0,-6.125626087E0,6.460621357E-1,9.068798065E0,1.096283675E1
2.310528821E0,4.594219685E0,-5.694918036E-1,1.183011532E1,1.270365317E1
2.312904342E0,-2.029113531E0,1.579262912E-1,8.020741463E0,8.274934202E0
2.315279862E0,-1.249053478E0,3.254238665E-1,1.115055370E1,1.122501150E1
2.317655383E0,3.397808075E0,-3.206382394E-1,9.293723106E0,9.900565528E0
2.320030904E0,-5.130211830E0,6.747759581E-1,9.556933403E0,1.086781358E1
2.322406425E0,4.666004181E0,-2.871387079E-2,1.152383423E1,1.243266564E1
2.324781946E0,-3.086741209E0,1.196411327E-1,7.570890903E0,8.176837675E0
2.327157467E0,-9.858429432E-1,1.722832322E-1,1.157647610E1,1.161965433E1
2.329532987E0,3.718446493E0,-6.125625968E-1,9.169296265E0,9.913529707E0
2.331908508E0,-4.733003139E0,8.662018180E-1,9.743574142E0,1.086686990E1
2.334284029E0,4.311866283E0,1.483550072E-1,1.117926693E1,1.198291322E1
2.336659550E0,-3.742374659E0,-8.135596663E-2,7.527820110E0,8.407143539E0
2.339035071E0,-1.196411327E-1,-7.178468257E-2,1.199761295E1,1.199842421E1
2.341410592E0,3.790230989E0,-3.637090325E-1,9.317651749E0,1.006562315E1
2.343786112E0,-4.919643402E0,6.987041831E-1,9.336793900E0,1.057671022E1
2.346161633E0,4.072584152E0,-2.536391914E-1,1.132283688E1,1.203565160E1
2.348537154E0,-3.751945972E0,-2.344966233E-1,7.800601959E0,8.659184614E0
2.350912675E0,9.954141974E-1,6.699903309E-2,1.226560879E1,1.230611625E1
2.353288196E0,2.837887764E0,1.770688742E-1,8.834300995E0,9.280616058E0
2.355663717E0,-5.302495003E0,3.541377485E-1,9.451649666E0,1.084322591E1
2.358039237E0,4.469792843E0,-5.599204898E-1,1.112183952E1,1.199949471E1
2.360414758E0,-3.512663603E0,6.699903309E-2,8.389236450E0,9.095195582E0
2.362790227E0,1.392622828E0,1.100698411E-1,1.190190029E1,1.198360314E1
2.365165800E0,1.612762451E0,-2.153540403E-1,8.585447311E0,8.738265596E0
2.367541321E0,-4.996213913E0,-7.657032460E-2,1.012642574E1,1.129214394E1
2.369916842E0,5.053641319E0,-5.647061467E-1,1.115533924E1,1.225968096E1
2.372292362E0,-3.847658873E0,9.571290612E-1,8.188239098E0,9.097682912E0
2.374667883E0,1.081555843E0,-7.657032460E-2,1.173918819E1,1.178915457E1
2.377043404E0,1.105484009E0,-7.848458290E-1,8.676374435E0,8.781659935E0
2.379418925E0,-4.019941807E0,2.919243574E-1,1.059063339E1,1.133166659E1
2.381794446E0,5.259424210E0,-2.297109663E-1,1.054277611E1,1.178407562E1
2.384169967E0,-5.082355499E0,5.838487148E-1,8.082955360E0,9.565844662E0
2.386545487E0,1.550549030E0,-4.546363056E-1,1.199282742E1,1.210119027E1
2.388921008E0,1.038485050E0,-6.843472719E-1,8.681160927E0,8.769796886E0
2.391296529E0,-3.302095175E0,7.513462901E-1,1.116969585E1,1.167178047E1
2.393671998E0,4.579862595E0,1.004985496E-1,9.662218094E0,1.069316136E1
2.396047571E0,-5.503491879E0,-2.727817893E-1,8.015955925E0,9.727198063E0
2.398423039E0,2.545963287E0,-1.196411327E-1,1.280638695E1,1.305755680E1
2.400798560E0,1.062413216E0,3.349951655E-2,8.317451477E0,8.385096489E0
2.403174081E0,-3.699303865E0,5.024927258E-1,1.029870892E1,1.095448554E1
2.405549602E0,4.369294167E0,-5.168496966E-1,1.027478027E1,1.117716309E1
2.407925123E0,-5.173282623E0,5.742774159E-2,8.389236450E0,9.856238596E0
2.410300644E0,3.474378586E0,-2.775674164E-1,1.264846039E1,1.311990474E1
2.412676164E0,1.435693651E-1,3.445664644E-1,8.030312538E0,8.038983622E0
2.415051685E0,-3.584448338E0,5.168496966E-1,1.044706345E1,1.105696785E1
2.417427206E0,4.713860512E0,-7.609176040E-1,1.005942631E1,1.113514859E1
2.419802727E0,-4.737788677E0,2.488535494E-1,8.819944382E0,1.001498819E1
2.422178248E0,3.919443607E0,-9.571290761E-2,1.225125217E1,1.286329581E1
2.424553769E0,-9.188438654E-1,1.100698411E-1,7.862815380E0,7.917086277E0
2.426929289E0,-3.110669374E0,-7.657032460E-2,1.089691448E1,1.133246982E1
2.429304810E0,5.067998409E0,-7.513462901E-1,1.011685371E1,1.134018775E1
2.431680331E0,-4.307080746E0,1.067198873E0,9.255437851E0,1.026416036E1
2.434055852E0,3.369094372E0,-8.135596663E-2,1.164347458E1,1.212138259E1
2.436431373E0,-1.540977836E0,-6.269195080E-1,7.800601959E0,7.976028566E0
2.438806894E0,-2.072184324E0,1.435693651E-1,1.141376400E1,1.160123134E1
2.441182414E0,5.302495003E0,-4.737788737E-1,9.786644936E0,1.114088591E1
2.443557935E0,-5.359922886E0,7.417750359E-1,8.815158844E0,1.034340510E1
2.445933404E0,3.373879910E0,-5.312066078E-1,1.206461143E1,1.253874376E1
2.448308977E0,-1.646261930E0,-5.407779217E-1,8.087740898E0,8.271285991E0
2.450684498E0,-1.402194023E0,1.435693651E-1,1.163390350E1,1.171897909E1
2.453060019E0,4.560719967E0,-2.871387079E-2,9.274580956E0,1.033532017E1
2.455435539E0,-5.910272121E0,3.637090325E-1,8.695517540E0,1.052024839E1
2.457811060E0,3.842873096E0,-6.125625968E-1,1.205504036E1,1.266755322E1
2.460186581E0,-1.670190215E0,-3.062812984E-1,8.121239662E0,8.296859480E0
2.462562102E0,-1.153340459E0,2.584248483E-1,1.138026428E1,1.144147686E1
2.464937623E0,3.608376503E0,-2.344966233E-1,9.327222824E0,1.000362211E1
2.467313092E0,-5.685346603E0,9.571290575E-3,9.040083885E0,1.067924970E1
2.469688664E0,4.465006828E0,-5.407779217E-1,1.232782269E1,1.312264984E1
2.472064185E0,-1.861616015E0,5.742774606E-1,7.963313580E0,8.198156619E0
2.474439706E0,-1.454836130E0,9.571290761E-2,1.078205872E1,1.088018838E1
2.476815227E0,3.560520172E0,-8.805587292E-1,9.518648148E0,1.020085046E1
2.479190748E0,-5.034498692E0,4.115654826E-1,9.375079155E0,1.064930385E1
2.481566217E0,5.005784988E0,-2.632105052E-1,1.175354481E1,1.277783153E1
2.483941737E0,-3.144168854E0,3.014956415E-1,7.714460373E0,8.336042001E0
2.486317310E0,-9.044869542E-1,-2.201396823E-1,1.126540947E1,1.130380505E1
2.488692831E0,3.919443607E0,-7.752745152E-1,9.327222824E0,1.014692931E1
2.491068300E0,-4.398007870E0,9.140582681E-1,9.968499184E0,1.093384432E1
2.493443821E0,4.603790760E0,1.387837082E-1,1.090170002E1,1.183474603E1
2.495819342E0,-3.574877024E0,-2.967100143E-1,7.489534855E0,8.304270884E0
2.498194862E0,-4.785645381E-2,-9.571290575E-3,1.192104244E1,1.192114234E1
2.500570383E0,4.335794449E0,-5.503492355E-1,9.351150513E0,1.032211285E1
2.502945852E0,-4.675575256E0,7.704889178E-1,9.265008926E0,1.040649065E1
2.505321425E0,4.345366001E0,-2.440679073E-1,1.151426220E1,1.230934640E1
2.507696946E0,-3.292523861E0,-3.637090325E-1,7.680960655E0,8.364816449E0
2.510072467E0,8.327022791E-1,8.614161611E-2,1.226082325E1,1.228936940E1
2.512447987E0,4.024727821E0,5.742774159E-2,8.949156761E0,9.812702926E0
2.514823508E0,-5.154139996E0,2.919243574E-1,9.116654396E0,1.047682043E1
2.517199029E0,4.742574692E0,-5.455635786E-1,1.157647610E1,1.252215849E1
2.519574550E0,-2.842673302E0,-4.785645287E-3,8.092526436E0,8.577283866E0
2.521950071E0,1.263410330E0,7.657032460E-2,1.194975662E1,1.201660318E1
2.524325592E0,2.880958557E0,-2.009970993E-1,8.853444099E0,9.312561112E0
2.526701112E0,-5.024927616E0,-1.004985496E-1,9.600004196E0,1.083605454E1
2.529076633E0,5.168497086E0,-6.364908218E-1,1.175354481E1,1.285551626E1
2.531452154E0,-2.737389088E0,6.508477330E-1,8.221738815E0,8.689872895E0
2.533827675E0,6.317051649E-1,4.785645287E-3,1.145683479E1,1.147423800E1
2.536203196E0,2.407179594E0,-9.284151793E-1,9.016156197E0,9.378035024E0
2.538578717E0,-4.594219685E0,3.014956415E-1,1.002114105E1,1.102819215E1
2.540954185E0,5.484349728E0,-4.498506486E-1,1.140897846E1,1.266669835E1
2.543329758E0,-4.005585194E0,3.493520916E-1,7.958528042E0,8.916553607E0
2.545705279E0,4.019941986E-1,-3.684946895E-1,1.184447193E1,1.185701915E1
2.548080800E0,2.622533560E0,-8.709874153E-1,9.016156197E0,9.430131171E0
2.550456269E0,-4.211368084E0,5.694918036E-1,1.061934662E1,1.143811456E1
2.552831842E0,4.800002098E0,9.571290575E-3,1.055234814E1,1.159276339E1
2.555207362E0,-4.685146809E0,-2.344966233E-1,7.771887779E0,9.077875794E0
2.557582883E0,8.374879360E-1,-1.722832322E-1,1.237567902E1,1.240518032E1
2.559958404E0,2.718246460E0,-6.029912829E-1,8.843872070E0,9.271814035E0
2.562333925E0,-4.713860512E0,6.556333899E-1,9.963713646E0,1.104200732E1
2.564709446E0,4.230510235E0,-3.110669553E-1,1.109312534E1,1.187650662E1
2.567084967E0,-4.589433670E0,-3.158525825E-1,7.709674358E0,8.977847347E0
2.569460435E0,1.244267821E0,-1.196411327E-1,1.247617722E1,1.253864085E1
2.571836008E0,2.627319336E0,1.004985496E-1,8.853444099E0,9.235603893E0
2.574211529E0,-5.230710506E0,4.977070987E-1,9.437292099E0,1.080141319E1
2.576587050E0,4.321437836E0,-6.699903607E-1,1.106919765E1,1.190171621E1
2.578962519E0,-4.264009953E0,6.221338734E-2,8.226524353E0,9.266140206E0
2.581338039E0,1.804188251E0,-9.571290575E-3,1.212682533E1,1.226030503E1
2.583713560E0,1.732403636E0,-5.742774159E-2,8.556734085E0,8.730533690E0
2.586089081E0,-5.101497650E0,7.657032460E-2,1.002114105E1,1.124519494E1
2.588464602E0,4.723432064E0,-4.354937077E-1,1.111226845E1,1.208234147E1
2.590840123E0,-3.613162279E0,5.982056856E-1,8.322237015E0,9.092437551E0
2.593215644E0,1.282552958E0,1.962114573E-1,1.164826107E1,1.172029978E1
2.595591164E0,1.679761529E0,-4.929214716E-1,8.494520187E0,8.673029666E0
2.597966685E0,-4.847858906E0,1.483550072E-1,1.003549862E1,1.114607454E1
2.600342206E0,5.536991596E0,-5.168496966E-1,1.147597694E1,1.275239022E1
2.602717727E0,-3.943371773E0,4.929214716E-1,7.953742504E0,8.891297562E0
2.605093248E0,1.014556766E0,3.589234054E-1,1.207896900E1,1.212681506E1
2.607468769E0,2.019542217E0,-7.130611539E-1,8.489734650E0,8.755718211E0
2.609844289E0,-4.216153622E0,1.004985496E-1,1.011685371E1,1.096069251E1
2.612219810E0,5.474778175E0,-3.493520916E-1,1.126540947E1,1.253015137E1
2.614595331E0,-4.220939159E0,4.402793646E-1,7.867600918E0,8.939201167E0
2.616970852E0,7.992027402E-1,-3.302095234E-1,1.196889877E1,1.200009588E1
2.619346373E0,2.703889608E0,-9.332008362E-1,8.982656479E0,9.427088640E0
2.621721894E0,-3.914657831E0,7.944171429E-1,1.054277611E1,1.127411959E1
2.624097414E0,4.713860512E0,7.178468257E-2,1.054756260E1,1.155321214E1
2.626472935E0,-4.713860512E0,-4.354937077E-1,7.657032490E0,9.002237624E0
2.628848456E0,1.450050473E0,-2.775674164E-1,1.262453270E1,1.271056710E1
2.631223977E0,3.029313564E0,-3.684946895E-1,8.910871506E0,9.418925629E0
2.633599498E0,-4.718646049E0,6.269195080E-1,9.657432556E0,1.076683111E1
2.635975019E0,4.283152580E0,9.571290575E-3,1.117926693E1,1.197169565E1
2.638350539E0,-4.493721008E0,-5.742774606E-1,7.503891945E0,8.765370353E0
2.640726060E0,1.880758643E0,-3.397808075E-1,1.270588779E1,1.284882441E1
2.643101581E0,2.498106956E0,-2.536391914E-1,8.599804878E0,8.958879123E0
2.645477102E0,-5.273781300E0,8.566305041E-1,9.844072342E0,1.120055112E1
2.647852623E0,4.311866283E0,-6.029912829E-1,1.088255692E1,1.172117035E1
2.650228144E0,-3.847658873E0,-2.249253243E-1,8.322237015E0,9.171406606E0
2.652603664E0,1.521835208E0,-7.657032460E-2,1.199761295E1,1.209398867E1
2.654979185E0,2.038684845E0,-1.435693540E-2,8.528019905E0,8.768327407E0
2.657354706E0,-5.589633465E0,2.727817893E-1,9.834501266E0,1.131529175E1
2.659730227E0,4.986642361E0,-6.604190469E-1,1.129890823E1,1.236802663E1
2.662105748E0,-3.603590965E0,4.067798555E-1,8.140382767E0,8.911631124E0
2.664481269E0,8.183453679E-1,2.823530734E-1,1.182054424E1,1.185220142E1
2.666856737E0,1.847259045E0,-5.120640397E-1,8.475378036E0,8.689453862E0
2.669232258E0,-4.991427898E0,3.445664644E-1,9.915857315E0,1.110663337E1
2.671607779E0,5.364708424E0,-2.679961324E-1,1.144726372E1,1.264483155E1
2.673983248E0,-4.063013077E0,4.067798555E-1,7.523034573E0,8.559766019E0
2.676358821E0,3.493520916E-1,4.785645287E-3,1.192104244E1,1.192616127E1
2.678734342E0,2.603390932E0,-5.264210105E-1,8.891729355E0,9.279957669E0
2.681109862E0,-4.383651257E0,7.800601721E-1,1.002114105E1,1.096577221E1
2.683485331E0,4.828716278E0,1.435693540E-2,1.093519974E1,1.195388223E1
2.685860904E0,-4.307080746E0,1.148554832E-1,7.508677483E0,8.657041866E0
2.688236425E0,6.699903607E-1,-2.392822690E-2,1.205504036E1,1.207366795E1
2.690611946E0,3.345165968E0,-3.397808075E-1,9.121439934E0,9.721432652E0
2.692987467E0,-4.575077057E0,7.657032609E-1,9.418149948E0,1.049853228E1
2.695362987E0,4.498506546E0,-2.536391914E-1,1.127498055E1,1.214191419E1
2.697738508E0,-3.838087559E0,8.135596663E-2,7.805387497E0,8.698368173E0
2.700114029E0,1.287338614E0,7.178468257E-2,1.205025482E1,1.211903606E1
2.702489550E0,3.311666489E0,-4.307080805E-2,8.863015175E0,9.461608109E0
2.704865071E0,-4.929214478E0,5.455635786E-1,9.394221306E0,1.062290868E1
2.707240592E0,4.776073933E0,-3.684946895E-1,1.134676456E1,1.231648232E1
2.709616112E0,-3.326023579E0,1.962114573E-1,8.078168869E0,8.738291827E0
2.711991633E0,1.229910851E0,2.297109663E-1,1.177268696E1,1.183898670E1
2.714367154E0,2.737389088E0,-3.828516304E-1,8.767302513E0,9.192685557E0
2.716742675E0,-4.857429981E0,5.216353536E-1,9.743574142E0,1.089972323E1
2.719118196E0,5.067998409E0,-3.972085714E-1,1.138983536E1,1.247279969E1
2.721493717E0,-3.201596737E0,3.780659735E-1,8.049455643E0,8.671037521E0
2.723869237E0,6.460621357E-1,-3.349951655E-2,1.160997581E1,1.162798594E1
2.726244758E0,2.809173822E0,-5.503492355E-1,8.901300430E0,9.350266905E0
2.728620279E0,-4.833501816E0,5.982056856E-1,9.939785004E0,1.106887148E1
2.730995800E0,5.254638672E0,-2.297109663E-1,1.127019501E1,1.243709332E1
2.733371321E0,-3.933800459E0,7.178468257E-2,7.685746193E0,8.634270880E0
2.735746842E0,6.125625968E-1,4.307080805E-2,1.209811115E1,1.211368571E1
2.738122362E0,2.569891453E0,-3.014956415E-1,8.700303078E0,9.076922129E0
2.740497883E0,-4.651647091E0,5.694918036E-1,9.934999466E0,1.098482389E1
2.742873404E0,4.661218643E0,-3.589234054E-1,1.122233772E1,1.215716452E1
2.745248925E0,-4.125226021E0,1.531406492E-1,7.599604607E0,8.648406325E0
2.747624446E0,4.881358147E-1,1.722832322E-1,1.209332561E1,1.210439930E1
2.749999967E0,2.469393015E0,-4.450650215E-1,8.882157326E0,9.229772668E0
2.752375435E0,-4.761716843E0,6.508477330E-1,9.781859398E0,1.089873035E1
2.754750956E0,4.316651821E0,-2.919243574E-1,1.110269737E1,1.191589660E1
2.757126529E0,-4.618147850E0,1.387837082E-1,7.709674358E0,8.988082621E0
2.759501998E0,9.379864931E-1,-1.914258115E-2,1.221775246E1,1.225372026E1
2.761877571E0,2.172683001E0,-3.349951655E-2,8.791230202E0,9.055793841E0
2.764253039E0,-4.962714195E0,3.780659735E-1,9.657432556E0,1.086450503E1
2.766628560E0,4.335794449E0,-3.349951804E-1,1.096869946E1,1.179930943E1
2.769004081E0,-4.551148891E0,3.541377485E-1,7.992027760E0,9.203851231E0
2.771379602E0,1.651047587E0,1.674975902E-1,1.215075302E1,1.226355628E1
2.773755123E0,1.272981644E0,-2.105683982E-1,8.451449394E0,8.549375309E0
2.776130592E0,-4.838287354E0,2.249253243E-1,1.015035343E1,1.124674578E1
2.778506164E0,4.742574692E0,-3.732803464E-1,1.093519974E1,1.192518118E1
2.780881685E0,-4.244867325E0,4.785645306E-1,8.322237015E0,9.354547105E0
2.783257206E0,1.622333765E0,8.614161611E-2,1.195932770E1,1.206917173E1
2.785632727E0,1.048056364E0,-6.173482537E-1,8.331808090E0,8.420128684E0
2.788008248E0,-4.374079704E0,3.254238665E-1,1.041835022E1,1.130400351E1
2.790383769E0,5.197210789E0,-4.307080805E-1,1.098784161E1,1.216261372E1
2.792759289E0,-4.503292084E0,4.833501875E-1,7.996813297E0,9.190336768E0
2.795134810E0,1.713261008E0,-3.732803464E-1,1.214596748E1,1.227188362E1
2.797510331E0,1.229910851E0,-4.402793646E-1,8.556734085E0,8.655878050E0
2.799885852E0,-3.680161238E0,2.919243574E-1,1.065763187E1,1.127891501E1
2.802261373E0,5.106283665E0,-1.914258152E-1,1.047099209E1,1.165128542E1
2.804636894E0,-4.819144726E0,2.632105052E-1,8.082955360E0,9.414223442E0
2.807012414E0,2.210968018E0,-4.546363056E-1,1.225125217E1,1.245745775E1
2.809387935E0,1.239482164E0,-5.264210105E-1,8.676374435E0,8.780256742E0
2.811763456E0,-3.426522017E0,4.977070987E-1,1.057149029E1,1.112408074E1
2.814138977E0,4.680361271E0,-3.206382394E-1,1.039920712E1,1.140842229E1
2.816514498E0,-4.934000492E0,-7.657032460E-2,8.149953842E0,9.527432577E0
2.818890019E0,2.746960402E0,-2.392822653E-1,1.274417305E1,1.303905649E1
2.821265539E0,1.177268744E0,-1.770688742E-1,8.379665375E0,8.463811604E0
2.823641060E0,-3.680161238E0,4.881358147E-1,1.037049294E1,1.101494381E1
2.826016581E0,4.622933388E0,-6.317051649E-1,1.033220863E1,1.133689110E1
2.828392102E0,-4.991427898E0,1.674975902E-1,8.427521706E0,9.796199774E0
2.830767623E0,3.469592810E0,-2.392822653E-1,1.241874981E1,1.289653741E1
2.833143144E0,2.153540403E-1,-3.828516230E-2,8.073383331E0,8.076345803E0
2.835518664E0,-3.771088600E0,1.004985496E-1,1.063370419E1,1.128303478E1
2.837894185E0,4.838287354E0,-4.929214716E-1,1.022692394E1,1.132439709E1
2.840269706E0,-4.642076015E0,5.024927258E-1,8.776873589E0,9.941573249E0
2.842645227E0,3.292523861E0,2.871387079E-2,1.201675510E1,1.245969266E1
2.845020748E0,-6.221339107E-1,-3.828516230E-2,7.934599876E0,7.959044638E0
2.847396269E0,-3.608376503E0,0.000000000E0,1.068634605E1,1.127911224E1
2.849771789E0,5.264209747E0,-6.556333899E-1,1.045184898E1,1.172104546E1
2.852147310E0,-4.819144726E0,7.082754970E-1,8.504091263E0,9.800274398E0
2.854522779E0,2.861815929E0,1.770688742E-1,1.211246777E1,1.244721733E1
2.856898352E0,-9.379864931E-1,-4.689932466E-1,7.762316704E0,7.832836902E0
2.859273821E0,-2.842673302E0,1.292124242E-1,1.098305607E1,1.134570438E1
2.861649342E0,5.249852657E0,-2.679961324E-1,1.030827999E1,1.157123205E1
2.864024862E0,-5.240281582E0,6.939185858E-1,8.154739380E0,9.718119593E0
2.866400383E0,2.665604353E0,-4.307080805E-1,1.220339584E1,1.249855296E1
2.868775904E0,-4.115654826E-1,-3.637090325E-1,8.188239098E0,8.206639381E0
2.871151425E0,-2.522035122E0,3.684946895E-1,1.111705399E1,1.140549599E1
2.873526946E0,4.622933388E0,-2.009970993E-1,9.820143700E0,1.085574204E1
2.875902467E0,-5.613562107E0,1.292124242E-1,8.250452042E0,9.979916546E0
2.878277987E0,3.211168051E0,-3.158525825E-1,1.268674564E1,1.309064086E1
2.880653508E0,-4.307080805E-2,-1.435693651E-1,8.049455643E0,8.050851098E0
2.883029029E0,-2.790031195E0,4.498506486E-1,1.068156052E1,1.104908932E1
2.885404550E0,4.321437836E0,-5.312066078E-1,9.920642853E0,1.083402788E1
2.887780071E0,-5.450850010E0,1.004985496E-1,8.523234367E0,1.011767710E1
2.890155592E0,4.029513359E0,-4.833501875E-1,1.264846039E1,1.328360476E1
2.892531112E0,-4.354937077E-1,-1.435693540E-2,7.910671711E0,7.922662924E0
2.894906633E0,-3.201596737E0,2.249253243E-1,1.084427261E1,1.130924673E1
2.897282154E0,4.594219685E0,-8.374879360E-1,1.008814049E1,1.111660106E1
2.899657675E0,-4.828716278E0,3.397808075E-1,8.896514893E0,1.012817501E1
2.902033196E0,3.905086517E0,-2.344966233E-1,1.211725426E1,1.273312766E1
2.904408717E0,-1.019342422E0,-1.674975902E-1,7.843672752E0,7.911404216E0
2.906784237E0,-3.187239647E0,-7.178468257E-2,1.099741268E1,1.145018495E1
2.909159758E0,5.254638672E0,-7.848458290E-1,1.021256733E1,1.151189567E1
2.911535279E0,-4.747360229E0,5.455635786E-1,8.781659126E0,9.997630008E0
2.913910800E0,3.259024382E0,-2.871387303E-1,1.214118195E1,1.257425893E1
2.916286321E0,-8.231309652E-1,-5.455635786E-1,7.858029366E0,7.919836470E0
2.918661842E0,-2.737389088E0,1.770688742E-1,1.125583744E1,1.158527207E1
2.921037362E0,5.426921844E0,-4.450650215E-1,1.012642574E1,1.149756765E1
2.923412883E0,-5.264209747E0,4.546363056E-1,8.231309891E0,9.781260704E0
2.925788404E0,3.120240688E0,-5.407779217E-1,1.238525009E1,1.278369127E1
2.928163925E0,-3.445664644E-1,-3.158525825E-1,8.106883049E0,8.120347386E0
2.930539446E0,-2.569891453E0,2.392822653E-1,1.098784161E1,1.128690663E1
2.932914967E0,4.953142643E0,-4.019941986E-1,1.006899738E1,1.122853195E1
2.935290487E0,-5.197210789E0,1.100698411E-1,8.226524353E0,9.731331784E0
2.937666008E0,3.278167009E0,-2.009970993E-1,1.261974621E1,1.304012167E1
2.940041529E0,1.052841991E-1,-2.057827413E-1,8.068597794E0,8.071908179E0
2.942417050E0,-2.861815929E0,3.972085714E-1,1.063370419E1,1.101923000E1
2.944792519E0,4.656432629E0,-5.551348329E-1,1.014556789E1,1.117689972E1
2.947168039E0,-5.158925533E0,4.450650215E-1,8.456234932E0,9.915669657E0
2.949543560E0,3.498306751E0,-3.732803464E-1,1.240439224E1,1.289365872E1
2.951919081E0,1.435693651E-1,-4.785645381E-2,8.135597229E0,8.137004650E0
2.954294602E0,-3.125026464E0,1.292124242E-1,1.061934662E1,1.107036625E1
2.956670123E0,4.823930264E0,-3.972085714E-1,1.023170948E1,1.131883195E1
2.959045644E0,-5.034498692E0,4.642075896E-1,8.499305725E0,9.889381354E0
2.961421164E0,3.637090445E0,-1.722832322E-1,1.231346512E1,1.284054250E1
2.963796685E0,-3.637090325E-1,-3.014956415E-1,7.867600918E0,7.881771887E0
2.966172206E0,-3.215953588E0,3.541377485E-1,1.092084217E1,1.139002040E1
2.968547727E0,4.800002098E0,-5.216353536E-1,1.011685371E1,1.120994436E1
2.970923248E0,-4.694717884E0,6.077769399E-1,8.805587769E0,9.997406902E0
2.973298769E0,3.302095175E0,-3.254238665E-1,1.206461143E1,1.251257697E1
2.975674289E0,-4.115654826E-1,-2.823530734E-1,7.872386456E0,7.888192309E0
2.978049810E0,-3.168097258E0,3.158525825E-1,1.110748291E1,1.155477303E1
2.980425331E0,5.230710506E0,-4.354937077E-1,1.014078236E1,1.141864501E1
2.982800852E0,-5.044070244E0,4.929214716E-1,8.432307243E0,9.838161497E0
2.985176373E0,3.177668571E0,-3.349951804E-1,1.229432297E1,1.270276256E1
2.987551842E0,-7.178468108E-1,-1.722832322E-1,7.944170952E0,7.978398189E0
2.989927414E0,-2.660818815E0,1.722832322E-1,1.111705399E1,1.143234567E1
2.992302935E0,4.934000492E0,-4.115654826E-1,1.013121128E1,1.127631097E1
2.994678456E0,-5.297709465E0,1.722832322E-1,8.394021988E0,9.927487709E0
2.997053977E0,3.211168051E0,-1.579262912E-1,1.246660614E1,1.287450231E1
2.999429498E0,-7.513462901E-1,-2.871387303E-1,7.987242222E0,8.027640264E0
3.001805019E0,-2.402393818E0,2.536391914E-1,1.106441212E1,1.132506267E1
3.004180539E0,4.460221291E0,-6.652047038E-1,9.891928673E0,1.087135337E1
3.006556060E0,-5.407779217E0,3.780659735E-1,8.719446182E0,1.026721733E1
3.008931581E0,3.589233875E0,-3.828516304E-1,1.224168110E1,1.276275563E1
3.011307102E0,-8.614161611E-1,-7.657032460E-2,8.154739380E0,8.200467985E0
3.013682623E0,-2.569891453E0,-8.614161611E-2,1.085862923E1,1.115892428E1
3.016058144E0,4.465006828E0,-6.029912829E-1,9.987641335E0,1.095686378E1
3.018433664E0,-5.513063431E0,4.259224236E-1,8.867800713E0,1.045051041E1
3.020809185E0,4.144368649E0,-3.254238665E-1,1.220339584E1,1.289203484E1
3.023184706E0,-1.674975872E0,-2.057827413E-1,7.834101200E0,8.013802613E0
3.025560227E0,-2.340180635E0,-5.742774159E-2,1.124626637E1,1.148730824E1
3.027935748E0,4.445864677E0,-5.264210105E-1,9.863214493E0,1.083170494E1
3.030311269E0,-5.134997368E0,5.168496966E-1,8.973084450E0,1.035140455E1
3.032686737E0,3.909872293E0,-3.876372576E-1,1.199282742E1,1.262003460E1
3.035062310E0,-1.986042738E0,-3.445664644E-1,7.728816986E0,7.987346481E0
3.037437831E0,-2.081755638E0,1.818545163E-1,1.144247818E1,1.163172749E1
3.039813300E0,4.637290478E0,-6.173482537E-1,9.676574707E0,1.074810122E1
3.042188821E0,-5.225924492E0,6.891329288E-1,8.987442017E0,1.041917967E1
3.044564342E0,3.775874138E0,-4.067798555E-1,1.191625690E1,1.250679311E1
3.046939862E0,-2.287538528E0,-1.435693651E-1,7.795815945E0,8.125773251E0
3.049315383E0,-1.339980721E0,1.148554832E-1,1.162433243E1,1.170187355E1
3.051690904E0,4.517649174E0,-2.871387303E-1,9.556933403E0,1.057480869E1
3.054066373E0,-5.412564754E0,4.067798555E-1,8.776873589E0,1.031963357E1
3.056441946E0,4.043870449E0,-2.201396823E-1,1.196411324E1,1.263096810E1
3.058817467E0,-2.392822742E0,-1.435693540E-2,7.824530125E0,8.182241653E0
3.061192987E0,-5.790630579E-1,3.397808075E-1,1.148554897E1,1.150515538E1
3.063568508E0,3.790230989E0,-4.498506486E-1,9.241081238E0,9.998289804E0
3.065944029E0,-5.321637630E0,5.024927258E-1,9.111868858E0,1.056401818E1
3.068319550E0,4.479363918E0,-1.962114573E-1,1.184925747E1,1.266917924E1
3.070695071E0,-2.421536446E0,2.584248483E-1,7.877171993E0,8.245026426E0
3.073070592E0,-5.120640397E-1,2.201396823E-1,1.129890823E1,1.131264772E1
3.075446112E0,3.589233875E0,-4.833501875E-1,9.140582085E0,9.831910702E0
3.077821633E0,-5.082355499E0,7.034898400E-1,9.312865257E0,1.063271812E1
3.080197154E0,5.010570526E0,-2.632105052E-1,1.163868904E1,1.267415399E1
3.082572675E0,-2.991028309E0,2.967100143E-1,7.637889862E0,8.208023436E0
3.084948196E0,-1.770688742E-1,-2.392822690E-2,1.161954689E1,1.162092061E1
3.087323717E0,3.594019651E0,-3.972085714E-1,9.207581520E0,9.892133711E0
3.089699237E0,-4.713860512E0,5.742774606E-1,9.523433685E0,1.064171343E1
3.092074758E0,4.905286312E0,-1.244267747E-1,1.142333508E1,1.243261437E1
3.094450279E0,-3.402593851E0,-1.052841991E-1,7.676175117E0,8.397165838E0
3.096825800E0,2.488535494E-1,9.571290761E-2,1.196889877E1,1.197186815E1
3.099201321E0,3.584448338E0,-5.551348329E-1,9.073583603E0,9.771712438E0
3.101576842E0,-4.642076015E0,6.843472719E-1,9.585647583E0,1.067248052E1
3.103952362E0,4.618147850E0,-4.211367965E-1,1.131326580E1,1.222679962E1
3.106327883E0,-3.608376503E0,3.349951655E-2,7.862815380E0,8.651321801E0
3.108703404E0,6.699903607E-1,1.914258115E-2,1.207418346E1,1.209277304E1
3.111078925E0,3.287738323E0,-3.684946895E-1,9.030512810E0,9.617441095E0
3.113454446E0,-4.819144726E0,2.201396823E-1,9.509077072E0,1.066279345E1
3.115829967E0,4.560719967E0,-3.110669553E-1,1.130369377E1,1.219304811E1
3.118205487E0,-3.900300980E0,6.699903309E-2,8.054241180E0,8.949169659E0
3.120581008E0,1.316052437E0,-1.004985496E-1,1.213639641E1,1.220795690E1
3.122956529E0,2.407179594E0,-3.972085714E-1,8.733802795E0,9.068164065E0
3.125332050E0,-4.814359188E0,3.014956415E-1,9.944570541E0,1.105275700E1
3.127707571E0,4.675575256E0,-3.254238665E-1,1.108355427E1,1.203378909E1
3.130083039E0,-3.881158352E0,1.531406492E-1,8.240880966E0,9.110376573E0
3.132458612E0,1.402194023E0,-1.196411327E-1,1.193061352E1,1.201332598E1
3.134834133E0,1.765903115E0,-4.737788737E-1,8.595019341E0,8.787333936E0
3.137209654E0,-4.747360229E0,4.737788737E-1,1.024128056E1,1.129804067E1
3.139585123E0,4.948357105E0,-4.498506486E-1,1.097348499E1,1.204599421E1
3.141960644E0,-4.268795490E0,3.254238665E-1,8.140382767E0,9.197518536E0
3.144336164E0,1.445264935E0,-2.536391914E-1,1.205025482E1,1.213926542E1
3.146711685E0,1.316052437E0,-2.727817893E-1,8.504091263E0,8.609644135E0
3.149087206E0,-4.331008911E0,3.637090325E-1,1.036570740E1,1.124000944E1
3.151462727E0,5.024927616E0,-3.062812984E-1,1.081555843E1,1.192979505E1
3.153838248E0,-4.823930264E0,1.627119333E-1,7.948956966E0,9.299607261E0
3.156213769E0,1.823330879E0,-7.657032460E-2,1.230389404E1,1.243849698E1
3.158589289E0,9.619147182E-1,-3.302095234E-1,8.346165657E0,8.407901012E0
3.160964810E0,-3.699303865E0,5.503492355E-1,1.053320503E1,1.117748369E1
3.163340331E0,4.704289436E0,-3.541377485E-1,1.041835022E1,1.143668544E1
3.165715852E0,-5.020142078E0,3.637090325E-1,8.068597794E0,9.509804472E0
3.168091373E0,2.459821701E0,0.000000000E0,1.238046455E1,1.262246511E1
3.170466894E0,7.082754970E-1,-1.339980662E-1,8.226524353E0,8.258045325E0
3.172842414E0,-3.522234917E0,3.397808075E-1,1.041356373E1,1.099835894E1
3.175217935E0,4.599005222E0,-3.732803464E-1,1.035135078E1,1.133316594E1
3.177593456E0,-5.034498692E0,5.168496966E-1,8.346165657E0,9.760727015E0
3.179968977E0,3.215953588E0,-1.866401732E-1,1.227996540E1,1.269546148E1
3.182344498E0,9.571290761E-2,-9.571290575E-3,8.130811691E0,8.131380653E0
3.184720019E0,-3.268595695E0,1.483550072E-1,1.069591713E1,1.118518530E1
3.187095539E0,4.766502857E0,-2.775674164E-1,1.009771156E1,1.116961826E1
3.189471060E0,-4.972285271E0,4.785645306E-1,8.705088615E0,1.003649404E1
3.191846581E0,3.651447296E0,-1.722832322E-1,1.213639641E1,1.267497008E1
3.194222102E0,-7.848458290E-1,-2.727817893E-1,7.886743546E0,7.930391960E0
3.196597623E0,-2.971885681E0,2.584248483E-1,1.113141060E1,1.152420018E1
3.198973144E0,4.967499733E0,-6.173482537E-1,9.982855797E0,1.116756833E1
3.201348664E0,-4.905286312E0,6.364908218E-1,8.757730484E0,1.005807127E1
3.203724185E0,3.421736479E0,-3.445664644E-1,1.211725426E1,1.259582698E1
3.206099706E0,-1.249053478E0,-2.584248483E-1,7.743174076E0,7.847525901E0
3.208475227E0,-2.455035925E0,1.387837082E-1,1.137069321E1,1.163353456E1
3.210850748E0,5.000999451E0,-5.359922647E-1,9.982855797E0,1.117831352E1
3.213226269E0,-5.355136871E0,4.498506486E-1,8.599804878E0,1.014083332E1
3.215601789E0,3.450450182E0,-4.115654826E-1,1.208375454E1,1.257346875E1
3.217977310E0,-1.674975872E0,-2.153540403E-1,8.006384850E0,8.182549718E0
3.220352831E0,-1.641476393E0,1.244267747E-1,1.140897846E1,1.152712958E1
3.222728352E0,4.374079704E0,-3.637090325E-1,9.528220177E0,1.049055943E1
3.225103873E0,-5.575276852E0,2.775674164E-1,8.796015739E0,1.041780440E1
3.227479394E0,3.900300980E0,-3.158525825E-1,1.217468166E1,1.278807977E1
3.229854862E0,-1.794616938E0,-1.722832322E-1,7.987242222E0,8.188184767E0
3.232230435E0,-1.349551916E0,2.201396823E-1,1.125105190E1,1.133383963E1
3.234605904E0,3.838087559E0,-5.838487148E-1,9.336793900E0,1.011175137E1
3.236981425E0,-5.522634506E0,4.498506486E-1,9.126225471E0,1.067660287E1
3.239356946E0,4.450650215E0,-3.972085714E-1,1.201675510E1,1.282062655E1
3.241732467E0,-2.100898266E0,1.770688742E-1,7.843672752E0,8.122088965E0
3.244107987E0,-1.392622828E0,-1.148554832E-1,1.128455162E1,1.137073856E1
3.246483508E0,3.948157310E0,-4.546363056E-1,9.422935486E0,1.022674697E1
3.248859029E0,-5.173282623E0,5.886343718E-1,9.226723671E0,1.059442180E1
3.251234550E0,4.800002098E0,-2.249253243E-1,1.184447193E1,1.278210182E1
3.253610071E0,-2.924029350E0,-1.435693540E-2,7.575676441E0,8.120408075E0
3.255985592E0,-9.954141974E-1,5.264209956E-2,1.157169056E1,1.161454446E1
3.258361112E0,4.034298897E0,-4.307080805E-1,9.346364975E0,1.018899481E1
3.260736633E0,-4.895715237E0,7.513462901E-1,9.379864693E0,1.060728102E1
3.263112154E0,4.364508629E0,-3.110669553E-1,1.145683479E1,1.226396191E1
3.265487675E0,-3.010170937E0,-4.785645287E-3,7.752745152E0,8.316622473E0
3.267863196E0,-6.317051649E-1,2.009970993E-1,1.187318611E1,1.189167775E1
3.270238717E0,4.235296249E0,-4.307080805E-1,9.116654396E0,1.006164157E1
3.272614237E0,-5.111069202E0,4.929214716E-1,9.250652313E0,1.058019698E1
3.274989758E0,4.350151539E0,-3.493520916E-1,1.172004509E1,1.250621134E1
3.277365279E0,-3.187239647E0,7.178468257E-2,7.819744587E0,8.444646530E0
3.279740800E0,4.785645287E-3,-4.785645287E-3,1.189232826E1,1.189233019E1
3.282116321E0,3.775874138E0,-3.445664644E-1,9.169296265E0,9.922295377E0
3.284491842E0,-5.149354458E0,4.259224236E-1,9.317651749E0,1.065438386E1
3.286867362E0,4.421936035E0,-1.866401732E-1,1.164826107E1,1.246075194E1
3.289242883E0,-3.172882795E0,-5.742774159E-2,7.953742504E0,8.563439905E0
3.291618404E0,4.450650215E-1,5.742774159E-2,1.171047401E1,1.171906918E1
3.293993925E0,3.010170937E0,-4.689932466E-1,9.001798630E0,9.503339534E0
3.296369446E0,-5.201996326E0,4.929214716E-1,9.600004196E0,1.092995050E1
3.298744967E0,4.747360229E0,-4.594219327E-1,1.148076344E1,1.243207250E1
3.301120487E0,-3.153740168E0,1.818545163E-1,8.106883049E0,8.700614971E0
3.303496008E0,3.302095234E-1,-1.818545163E-1,1.165304661E1,1.165914253E1
3.305871529E0,2.785245657E0,-3.972085714E-1,8.939585686E0,9.371849351E0
3.308247050E0,-5.053641319E0,4.211367965E-1,9.829715729E0,1.106073949E1
3.310622571E0,5.192425251E0,-4.498506486E-1,1.138504982E1,1.252130205E1
3.312998092E0,-3.938585997E0,4.785645381E-2,7.848458290E0,8.781403500E0
3.315373612E0,5.407779217E-1,-1.339980662E-1,1.201675510E1,1.202966332E1
3.317749133E0,2.431107759E0,-4.498506486E-1,8.652446747E0,8.998749094E0
3.320124654E0,-4.479363918E0,4.450650215E-1,1.014078236E1,1.109496511E1
3.322500175E0,4.780859470E0,-3.732803464E-1,1.098305607E1,1.198430124E1
3.324875696E0,-4.273581028E0,6.221338734E-2,7.819744587E0,8.911552654E0
3.327251217E0,1.086341500E0,-6.699903309E-2,1.223210907E1,1.228043643E1
3.329626685E0,2.330609322E0,-5.072783828E-1,8.638090134E0,8.961343221E0
3.332002258E0,-4.321437836E0,5.120640397E-1,1.002114105E1,1.092521407E1
3.334377727E0,4.565505505E0,-4.594219327E-1,1.076291656E1,1.170022572E1
3.336753248E0,-4.488935471E0,1.531406492E-1,8.106883049E0,9.267985028E0
3.339128821E0,1.981257200E0,-1.818545163E-1,1.222732353E1,1.238813513E1
3.341504289E0,1.875972986E0,-1.052841991E-1,8.537590981E0,8.741900203E0
3.343879810E0,-4.259224415E0,3.062812984E-1,9.968499184E0,1.084461972E1
3.346255331E0,4.661218643E0,-4.785645306E-1,1.064327526E1,1.162907097E1
3.348630852E0,-4.479363918E0,1.818545163E-1,8.183453560E0,9.330953024E0
3.351006373E0,2.943171740E0,-3.828516230E-2,1.235653591E1,1.270227166E1
3.353381894E0,7.657032609E-1,-4.785645287E-3,8.092526436E0,8.128672001E0
3.355757414E0,-4.086941242E0,1.339980662E-1,1.036570740E1,1.114311151E1
3.358132935E0,5.168497086E0,-5.312066078E-1,1.062891865E1,1.183086870E1
3.360508456E0,-4.240081787E0,4.019941986E-1,8.451449394E0,9.463978538E0
3.362883977E0,2.837887764E0,-1.387837082E-1,1.185404301E1,1.218979916E1
3.365259498E0,1.387837082E-1,-3.780659735E-1,8.078168869E0,8.088201721E0
3.367635019E0,-3.570091486E0,2.105683982E-1,1.086341476E1,1.143694332E1
3.370010539E0,5.527420521E0,-4.642075896E-1,1.037527943E1,1.176496024E1
3.372386060E0,-4.737788677E0,6.317051649E-1,8.283951759E0,9.563971441E0
3.374761581E0,2.732603550E0,-3.828516304E-1,1.197368431E1,1.228750640E1
3.377137102E0,-1.722832322E-1,-3.254238665E-1,8.154739380E0,8.163048239E0
3.379512623E0,-2.751745939E0,2.488535494E-1,1.105962658E1,1.139953393E1
3.381888144E0,5.245067120E0,-2.632105052E-1,9.987641335E0,1.128419196E1
3.384263664E0,-5.326423168E0,4.211367965E-1,8.212167740E0,9.797338361E0
3.386639185E0,2.991028309E0,-4.642075896E-1,1.218425274E1,1.255459095E1
3.389014706E0,-3.206382394E-1,-3.397808075E-1,8.216953278E0,8.230223633E0
3.391390227E0,-2.316252232E0,3.972085714E-1,1.114576817E1,1.139082732E1
3.393765748E0,4.627718925E0,-1.627119333E-1,9.748359680E0,1.079225528E1
3.396141269E0,-5.685346603E0,3.876372576E-1,8.422736168E0,1.016936149E1
3.398516789E0,3.570091486E0,-6.843472719E-1,1.227039433E1,1.279751778E1
3.400892310E0,-2.823530734E-1,-1.531406492E-1,8.379665375E0,8.385819406E0
3.403267831E0,-2.426322222E0,4.211367965E-1,1.087777138E1,1.115304021E1
3.405643352E0,4.101297855E0,-4.067798555E-1,9.585647583E0,1.043411489E1
3.408018873E0,-5.426921844E0,1.579262912E-1,8.882157326E0,1.041004996E1
3.410394394E0,4.522434711E0,-2.871387303E-1,1.252881908E1,1.332314422E1
3.412769862E0,-1.354337573E0,1.196411327E-1,7.690532207E0,7.809790644E0
3.415145435E0,-2.416750908E0,6.460621357E-1,1.109791183E1,1.137636710E1
3.417520904E0,4.063013077E0,-7.657032609E-1,9.494720459E0,1.035587241E1
3.419896425E0,-4.800002098E0,2.297109663E-1,9.198010445E0,1.037767717E1
3.422271998E0,4.474578381E0,-1.674975902E-1,1.207418346E1,1.287772548E1
3.424647467E0,-1.923829436E0,3.062812984E-1,7.590033531E0,7.836040897E0
3.427022935E0,-2.517249346E0,5.742774159E-2,1.124626637E1,1.152468435E1
3.429398508E0,4.943571568E0,-6.317051649E-1,1.000678444E1,1.117916303E1
3.431774029E0,-4.646861553E0,6.939185858E-1,8.824729919E0,9.997534869E0
3.434149550E0,3.976871252E0,-1.292124242E-1,1.182054424E1,1.247226792E1
3.436525071E0,-2.249253273E0,-1.292124242E-1,7.848458290E0,8.165423055E0
3.438900592E0,-1.473978758E0,5.742774159E-2,1.154776192E1,1.164159425E1
3.441276112E0,5.192425251E0,-3.014956415E-1,9.762716293E0,1.106177242E1
3.443651633E0,-5.292923450E0,6.173482537E-1,8.599804878E0,1.011695614E1
3.446027154E0,3.771088600E0,-4.450650215E-1,1.205504036E1,1.263895526E1
3.448402675E0,-1.904686809E0,-1.818545163E-1,8.049455643E0,8.273731869E0
3.450778196E0,-7.513462901E-1,2.967100143E-1,1.160519028E1,1.163327123E1
3.453153717E0,4.421936035E0,-1.531406492E-1,9.312865257E0,1.031050094E1
3.455529237E0,-5.589633465E0,8.231309652E-1,8.958727837E0,1.059152262E1
3.457904758E0,4.067798615E0,-8.709874153E-1,1.174397373E1,1.245899369E1
3.460280279E0,-1.564906001E0,-2.153540403E-1,8.494520187E0,8.640149383E0
3.462655800E0,-7.513462901E-1,2.344966233E-1,1.157647610E1,1.160320252E1
3.465031321E0,3.866801500E0,-7.178468257E-2,8.997013092E0,9.793035865E0
3.467406842E0,-5.814558983E0,5.120640397E-1,9.102297783E0,1.081309996E1
3.469782362E0,4.704289436E0,-8.279166222E-1,1.208854008E1,1.299802240E1
3.472157883E0,-1.966900229E0,-1.435693540E-2,8.039883614E0,8.276994089E0
3.474533404E0,-1.158126116E0,2.823530734E-1,1.142333508E1,1.148536302E1
3.476908925E0,3.503092289E0,-6.269195080E-1,9.126225471E0,9.795543630E0
3.479284446E0,-5.230710506E0,1.962114573E-1,9.590433121E0,1.092589762E1
3.481659967E0,4.804787636E0,-2.775674164E-1,1.198804188E1,1.291805620E1
3.484035487E0,-2.900100946E0,2.440679073E-1,7.647460938E0,8.182530992E0
3.486411008E0,-1.651047587E0,-1.962114573E-1,1.140897846E1,1.152949464E1
3.488786529E0,4.077369690E0,-7.322037220E-1,9.628718376E0,1.048204577E1
3.491162050E0,-4.938786030E0,6.412764788E-1,9.418149948E0,1.065384397E1
3.493537571E0,4.268795490E0,-1.483550072E-1,1.160997581E1,1.237077858E1
3.495913039E0,-3.641875982E0,-1.244267747E-1,7.757531166E0,8.570766155E0
3.498288612E0,-7.896314859E-1,-1.483550072E-1,1.169133186E1,1.171890643E1
3.500664133E0,4.220939159E0,-4.402793646E-1,9.533005714E0,1.043495909E1
3.503039654E0,-5.312066078E0,6.747759581E-1,9.078369141E0,1.053993145E1
3.505415175E0,3.708875179E0,-4.737788737E-1,1.142333508E1,1.201968410E1
3.507790696E0,-3.359523058E0,-2.967100143E-1,7.992027760E0,8.674499393E0
3.510166217E0,1.292124242E-1,1.435693540E-2,1.217946720E1,1.218016105E1
3.512541737E0,3.584448338E0,-2.201396823E-1,8.781659126E0,9.487584960E0
3.514917258E0,-5.747560024E0,8.566305041E-1,9.336793900E0,1.099745345E1
3.517292779E0,3.938585997E0,-8.327022791E-1,1.141376400E1,1.210288649E1
3.519668300E0,-2.837887764E0,-2.727817893E-1,8.298309326E0,8.774391975E0
3.522043769E0,3.445664644E-1,1.770688742E-1,1.204068375E1,1.204691432E1
3.524419289E0,3.091526747E0,4.785645381E-2,8.633303642E0,9.170264971E0
3.526794810E0,-5.886343479E0,5.886343718E-1,9.389435768E0,1.109761389E1
3.529170331E0,4.728217602E0,-7.465606928E-1,1.170090294E1,1.264217245E1
3.531545800E0,-2.746960402E0,1.387837082E-1,8.116454124E0,8.569823797E0
3.533921373E0,1.004985496E-1,2.727817893E-1,1.158126163E1,1.158490962E1
3.536296894E0,2.651247501E0,-3.924229145E-1,8.767302513E0,9.167807939E0
3.538672414E0,-5.149354458E0,1.244267747E-1,9.772287369E0,1.104667071E1
3.541047935E0,5.388636589E0,-2.727817893E-1,1.169133186E1,1.287629818E1
3.543423456E0,-3.479164124E0,3.493520916E-1,7.657032490E0,8.417646728E0
3.545798977E0,-1.914258115E-2,4.450650215E-1,1.164347458E1,1.165199337E1
3.548174498E0,2.780459881E0,-8.470591903E-1,8.815158844E0,9.281998269E0
3.550550019E0,-4.378865242E0,2.967100143E-1,1.013121128E1,1.104101171E1
3.552925539E0,4.972285271E0,-1.818545163E-1,1.133240795E1,1.237659735E1
3.555301060E0,-3.952943087E0,4.067798555E-1,7.570890903E0,8.550416245E0
3.557676581E0,1.914258115E-2,-3.972085714E-1,1.186361504E1,1.187027813E1
3.560052102E0,3.594019651E0,-5.024927258E-1,9.351150513E0,1.003062770E1
3.562427623E0,-4.479363918E0,5.982056856E-1,9.738788605E0,1.073622628E1
3.564803144E0,4.508078098E0,1.818545163E-1,1.097827053E1,1.186921493E1
3.567178664E0,-4.469792843E0,1.100698411E-1,7.728816986E0,8.928929131E0
3.569554185E0,1.048056364E0,-5.264210105E-1,1.212682533E1,1.218340814E1
3.571929706E0,3.282952785E0,-2.392822653E-1,9.040083885E0,9.620714716E0
3.574305227E0,-4.843072891E0,7.034898400E-1,9.657432556E0,1.082664567E1
3.576680696E0,4.153940201E0,-3.062812984E-1,1.088255692E1,1.165242775E1
3.579056269E0,-3.981656790E0,-1.483550072E-1,8.350951195E0,9.252782601E0
3.581431789E0,1.765903115E0,3.828516230E-2,1.220339584E1,1.233056161E1
3.583807310E0,2.249253273E0,-1.004985496E-1,8.322237015E0,8.621419209E0
3.586182831E0,-5.331208706E0,5.312066078E-1,9.968499184E0,1.131702005E1
3.588558352E0,4.570291042E0,-6.604190469E-1,1.107876873E1,1.200261764E1
3.590933873E0,-3.651447296E0,2.201396823E-1,8.245666504E0,9.020673197E0
3.593309394E0,1.378265858E0,1.196411327E-1,1.197368431E1,1.205334173E1
3.595684914E0,1.536192179E0,-2.344966233E-1,8.322237015E0,8.466079613E0
3.598060435E0,-5.053641319E0,-4.307080805E-2,1.022213840E1,1.140321267E1
3.600435904E0,5.422136307E0,-3.828516304E-1,1.134197903E1,1.257722647E1
3.602811477E0,-4.340580463E0,5.742774606E-1,7.819744587E0,8.962077815E0
3.605186998E0,1.004985452E0,3.254238665E-1,1.180140114E1,1.184858495E1
3.607562519E0,1.201196909E0,-7.657032609E-1,8.494520187E0,8.613132340E0
3.609938039E0,-4.067798615E0,2.009970993E-1,1.056670475E1,1.132442646E1
3.612313560E0,5.048855782E0,-2.009970993E-1,1.084427261E1,1.196367807E1
3.614689081E0,-4.867001057E0,6.125625968E-1,7.853243828E0,9.259393654E0
3.617064602E0,9.714859724E-1,-5.024927258E-1,1.190190029E1,1.195205064E1
3.619440071E0,1.780260086E0,-5.072783828E-1,8.910871506E0,9.101114675E0
3.621815592E0,-3.766302824E0,7.465606928E-1,1.053320503E1,1.121119075E1
3.624191112E0,4.354937077E0,4.307080805E-2,1.010728264E1,1.100565738E1
3.626566633E0,-5.450850010E0,-4.307080805E-2,8.054241180E0,9.725452273E0
3.628942154E0,2.306680918E0,-3.254238665E-1,1.241396427E1,1.263064474E1
3.631317675E0,1.737189293E0,-1.148554832E-1,8.494520187E0,8.671095181E0
3.633693144E0,-4.192225456E0,6.364908218E-1,1.023649502E1,1.107996864E1
3.636068717E0,4.130012035E0,-3.876372576E-1,1.024606609E1,1.105391933E1
3.638444237E0,-4.776073933E0,-7.657032460E-2,8.456234932E0,9.712088058E0
3.640819758E0,3.129812002E0,2.871387079E-2,1.260060406E1,1.298351918E1
3.643195279E0,1.004985452E0,3.589234054E-1,7.838887215E0,7.911192991E0
3.645570800E0,-4.599005222E0,-6.699903309E-2,1.039920712E1,1.137096507E1
3.647946321E0,4.881358147E0,-4.929214716E-1,1.067677498E1,1.175007034E1
3.650321842E0,-4.096512318E0,4.307080805E-1,8.413164139E0,9.367403773E0
3.652697362E0,3.067598581E0,-1.914258115E-2,1.208375454E1,1.246706266E1
3.655072883E0,-1.196411327E-1,-1.148554832E-1,8.126026154E0,8.127718427E0
3.657448404E0,-3.890729666E0,-1.292124242E-1,1.053320503E1,1.122955393E1
3.659823925E0,5.637490273E0,-5.024927258E-1,1.087298584E1,1.225787978E1
3.662199446E0,-4.417150497E0,1.153340459E0,8.197810173E0,9.383256597E0
3.664574967E0,2.344966173E0,-3.684946895E-1,1.161954689E1,1.185953307E1
3.666950487E0,-2.871387303E-1,-5.742774606E-1,8.240880966E0,8.265855210E0
3.669326008E0,-2.498106956E0,2.775674164E-1,1.152861977E1,1.179943455E1
3.671701529E0,5.484349728E0,-2.392822653E-1,9.710074425E0,1.115441138E1
3.674077050E0,-5.369493961E0,8.949156404E-1,8.389236450E0,1.000058136E1
3.676452571E0,2.627319336E0,-2.153540403E-1,1.197368431E1,1.226043638E1
3.678828092E0,-2.153540403E-1,-5.168496966E-1,8.240880966E0,8.259880754E0
3.681203612E0,-2.086541414E0,3.206382394E-1,1.134676456E1,1.154147001E1
3.683579133E0,4.886143684E0,-1.818545163E-1,9.470791817E0,1.065848811E1
3.685954654E0,-5.795416355E0,5.264210105E-1,8.461020470E0,1.026902319E1
3.688330175E0,3.364308596E0,-3.589234054E-1,1.236610699E1,1.282060842E1
3.690705696E0,-3.924229145E-1,-1.914258115E-2,8.102097511E0,8.111617981E0
3.693081217E0,-2.225325108E0,2.679961324E-1,1.093041420E1,1.115786038E1
3.695456737E0,4.144368649E0,-3.828516304E-1,9.475577354E0,1.034934457E1
3.697832258E0,-5.536991596E0,2.967100143E-1,8.934800148E0,1.051555830E1
3.700207779E0,4.354937077E0,-1.914258152E-1,1.240917778E1,1.315255922E1
3.702583300E0,-1.459621787E0,5.216353536E-1,7.704888821E0,7.859256386E0
3.704958821E0,-2.378465652E0,1.770688742E-1,1.086341476E1,1.112215054E1
3.707334342E0,3.948157310E0,-7.226324677E-1,9.466006279E0,1.028180036E1
3.709709862E0,-4.728217602E0,4.689932466E-1,9.466006279E0,1.059156604E1
3.712085331E0,4.421936035E0,-8.614161611E-2,1.170090294E1,1.250887958E1
3.714460904E0,-2.646461725E0,2.775674164E-1,7.690532207E0,8.137879882E0
3.716836373E0,-1.761117458E0,-3.254238665E-1,1.122233772E1,1.136434333E1
3.719211894E0,4.402793884E0,-5.694918036E-1,9.724431038E0,1.068987717E1
3.721587414E0,-4.493721008E0,1.249053478E0,9.418149948E0,1.050976743E1
3.723962935E0,3.771088600E0,-3.302095234E-1,1.096391296E1,1.159903164E1
3.726338456E0,-3.326023579E0,-4.354937077E-1,8.001599312E0,8.676271040E0
3.728713977E0,1.387837082E-1,1.196411327E-1,1.211246777E1,1.211385365E1
3.731089498E0,4.110869408E0,-1.914258115E-2,8.839086533E0,9.748285206E0
3.733465019E0,-5.302495003E0,1.914258152E-1,9.245866776E0,1.066016649E1
3.735840539E0,4.163511276E0,-3.972085714E-1,1.165783215E1,1.238538054E1
3.738216060E0,-3.192025423E0,-1.387837082E-1,7.944170952E0,8.562601201E0
3.740591581E0,1.320838094E0,0.000000000E0,1.208375454E1,1.215572857E1
3.742967102E0,2.598605394E0,-1.435693651E-1,8.642875671E0,9.026220805E0
3.745342623E0,-4.938786030E0,5.982056856E-1,9.891928673E0,1.107247535E1
3.747718144E0,4.584648132E0,-7.417750359E-1,1.077727318E1,1.173536731E1
3.750093664E0,-3.292523861E0,-5.264209956E-2,8.537590981E0,9.150625351E0
3.752469185E0,1.971685886E0,8.135596663E-2,1.204068375E1,1.220132079E1
3.754844706E0,1.473978758E0,-1.914258115E-2,8.245666504E0,8.376395162E0
3.757220227E0,-4.522434711E0,4.163511395E-1,1.032263660E1,1.127752590E1
3.759595748E0,5.278566837E0,-7.800601721E-1,1.064327526E1,1.190592584E1
3.761971269E0,-4.058227062E0,1.627119333E-1,8.346165657E0,9.281926699E0
3.764346789E0,2.373680115E0,8.614161611E-2,1.223689461E1,1.246528649E1
3.766722310E0,4.163511395E-1,-1.770688742E-1,8.044670105E0,8.057382873E0
3.769097831E0,-3.546163082E0,-1.004985496E-1,1.067677498E1,1.125072871E1
3.771473352E0,5.211567879E0,-3.541377485E-1,1.061456108E1,1.183024768E1
3.773848873E0,-4.675575256E0,5.312066078E-1,8.216953278E0,9.468975953E0
3.776224394E0,2.507678032E0,-2.919243574E-1,1.196889877E1,1.223226090E1
3.778599914E0,-4.354937077E-1,-5.694918036E-1,8.470592499E0,8.500877188E0
3.780975435E0,-2.239681959E0,3.254238665E-1,1.133719349E1,1.156088371E1
3.783350956E0,4.579862595E0,-1.483550072E-1,9.456435204E0,1.050815480E1
3.785726477E0,-5.675775528E0,7.609176040E-1,8.839086533E0,1.053199289E1
3.788101998E0,3.340380430E0,-7.992027402E-1,1.188754272E1,1.237378432E1
3.790477519E0,-1.162911773E0,-3.302095234E-1,8.489734650E0,8.575371510E0
3.792853039E0,-1.641476393E0,2.297109663E-1,1.140419292E1,1.152401094E1
3.795228560E0,3.938585997E0,-1.339980662E-1,9.073583603E0,9.892438250E0
3.797604081E0,-5.900700569E0,5.886343718E-1,9.164510727E0,1.091572327E1
3.799979602E0,4.264009953E0,-7.609176040E-1,1.184447193E1,1.261159355E1
3.802355123E0,-2.392822742E0,-2.871387303E-1,8.063812256E0,8.416241288E0
3.804730644E0,-8.518448472E-1,3.062812984E-1,1.177747345E1,1.181221100E1
3.807106112E0,3.235096216E0,-3.349951804E-1,8.839086533E0,9.418466968E0
3.809481633E0,-5.245067120E0,1.627119333E-1,9.714859962E0,1.104154465E1
3.811857154E0,4.512863636E0,-3.445664644E-1,1.164347458E1,1.249220415E1
3.814232675E0,-3.316452265E0,4.785645381E-2,7.829315662E0,8.502901246E0
3.816608248E0,-1.100698411E-1,-1.052841991E-1,1.177268696E1,1.177367225E1
3.818983769E0,2.775674343E0,-6.891329288E-1,9.073583603E0,9.513631885E0
3.821359237E0,-4.287938118E0,4.402793646E-1,1.023170948E1,1.110261852E1
3.823734758E0,4.503292084E0,-2.057827413E-1,1.072463131E1,1.163355934E1
3.826110279E0,-4.508078098E0,-1.387837082E-1,7.982456207E0,9.168513301E0
3.828485800E0,1.789831281E0,-2.967100143E-1,1.239960670E1,1.253163115E1
3.830861321E0,1.866401672E0,-2.967100143E-1,8.709874153E0,8.912541714E0
3.833236842E0,-3.814159393E0,2.344966233E-1,1.031785107E1,1.100276561E1
3.835612362E0,4.488935471E0,-5.982056856E-1,1.021256733E1,1.117161238E1
3.837987883E0,-4.670789719E0,-1.531406492E-1,8.566305161E0,9.758140845E0
3.840363404E0,3.598805189E0,-1.962114573E-1,1.262931824E1,1.313352873E1
3.842738925E0,1.196411327E-1,3.062812984E-1,8.011170387E0,8.017915765E0
3.845114446E0,-3.311666489E0,-3.254238665E-1,1.059541893E1,1.110567143E1
3.847489967E0,4.780859470E0,-7.896314859E-1,1.007378292E1,1.117860624E1
3.849865487E0,-4.163511276E0,3.780659735E-1,9.341579437E0,1.023439624E1
3.852241008E0,4.182653904E0,-1.387837082E-1,1.172004509E1,1.244481063E1
3.854616529E0,-1.995614052E0,1.244267747E-1,8.044670105E0,8.289431498E0
3.856992050E0,-1.785045743E0,-1.483550072E-1,1.104048347E1,1.118484121E1
3.859367571E0,4.699503899E0,-9.762716293E-1,9.772287369E0,1.088742594E1
3.861743092E0,-4.455435753E0,4.163511395E-1,9.571290970E0,1.056569292E1
3.864118612E0,4.254438877E0,-2.392822690E-2,1.148076344E1,1.224372295E1
3.866494133E0,-3.474378586E0,-1.244267747E-1,7.872386456E0,8.605885026E0
3.868869654E0,-2.871387079E-2,-3.541377485E-1,1.168175983E1,1.168716180E1
3.871245175E0,3.732803345E0,-5.120640397E-1,9.403793335E0,1.013051625E1
3.873620696E0,-4.560719967E0,3.924229145E-1,9.748359680E0,1.076961832E1
3.875996217E0,4.115654945E0,-1.914258152E-1,1.105484104E1,1.179765951E1
3.878371737E0,-4.082155228E0,-3.828516304E-1,8.121239662E0,9.097532650E0
3.880747258E0,1.919043779E0,-1.292124242E-1,1.239003563E1,1.253843721E1
3.883122779E0,1.761117458E0,-2.105683982E-1,8.374878883E0,8.560634910E0
3.885498300E0,-4.555934429E0,5.312066078E-1,1.040399265E1,1.137021469E1
3.887873769E0,4.508078098E0,-5.838487148E-1,1.029870892E1,1.125731108E1
3.890249342E0,-4.254438877E0,-1.962114573E-1,8.585447311E0,9.583770377E0
3.892624862E0,2.823530674E0,-1.531406492E-1,1.245703506E1,1.277393832E1
3.895000383E0,0.000000000E0,-2.871387079E-2,7.838887215E0,7.838939804E0
3.897375904E0,-3.713660717E0,3.924229145E-1,1.082034397E1,1.144662026E1
3.899751425E0,4.895715237E0,-5.647061467E-1,1.013599682E1,1.127055244E1
3.902126946E0,-4.785645485E0,-5.742774159E-2,8.394021988E0,9.662572421E0
3.904502467E0,3.488735437E0,-2.871387079E-2,1.249532032E1,1.297324668E1
3.906877987E0,-1.536192179E0,2.392822690E-2,7.704888821E0,7.856574999E0
3.909253508E0,-1.885544300E0,1.818545163E-1,1.117926693E1,1.133862238E1
3.911628977E0,4.388436794E0,-3.493520916E-1,9.724431038E0,1.067450155E1
3.914004498E0,-4.934000492E0,9.092725813E-2,8.748159409E0,1.004404907E1
3.916380019E0,3.962514400E0,-6.699903309E-2,1.217946720E1,1.280802212E1
3.918755539E0,-2.455035925E0,-9.092725813E-2,7.733603001E0,8.114436797E0
3.921131060E0,4.307080805E-2,3.014956415E-1,1.170568848E1,1.170964976E1
3.923506581E0,3.086741209E0,-1.674975902E-1,8.939585686E0,9.458975577E0
3.925882102E0,-4.991427898E0,-1.148554832E-1,9.379864693E0,1.062588377E1
3.928257623E0,4.843072891E0,-4.067798555E-1,1.171047401E1,1.267895999E1
3.930633144E0,-2.866601467E0,8.805587292E-1,8.149953842E0,8.684154264E0
3.933008664E0,7.848458290E-1,-2.632105052E-1,1.129890823E1,1.132919194E1
3.935384185E0,1.785045743E0,-6.939185858E-1,8.872586250E0,9.076932195E0
3.937759706E0,-3.713660717E0,4.163511395E-1,1.077727318E1,1.140676297E1
3.940135227E0,5.489135265E0,-1.722832322E-1,1.019342422E1,1.157869530E1
