"Time (s)","Acceleration x (m/s^2)","Acceleration y (m/s^2)","Acceleration z (m/s^2)","Absolute acceleration (m/s^2)"
8.469500000E-3,1.751546144E0,-3.876372576E-1,6.690331936E0,6.926667160E0
1.084496900E-2,-1.531406522E0,-4.307080805E-1,1.199761295E1,1.210262087E1
1.322043700E-2,3.038884640E0,-9.571290612E-1,8.882157326E0,9.436293481E0
1.559642700E-2,-2.124826431E0,3.302095234E-1,9.820143700E0,1.005281791E1
1.797200000E-2,2.383251429E0,-1.478764415E0,1.143769264E1,1.177656336E1
2.034762500E-2,-1.406979680E0,2.919243574E-1,7.408178806E0,7.546252373E0
2.272319800E-2,7.992027402E-1,-1.339980721E0,1.349073410E1,1.358065462E1
2.509877100E-2,5.216353536E-1,-1.770688742E-1,6.350551128E0,6.374398518E0
2.747439600E-2,-9.906286001E-1,-7.561319470E-1,1.281595802E1,1.287640713E1
2.984996900E-2,2.096112728E0,-6.173482537E-1,7.235895634E0,7.558636984E0
3.222559400E-2,-1.808973908E0,-2.632105052E-1,1.147119141E1,1.161593297E1
3.460116700E-2,2.876172781E0,-1.076770186E0,9.738788605E0,1.021155264E1
3.697679200E-2,-2.450250387E0,3.684946895E-1,8.863015175E0,9.202855714E0
3.935236400E-2,1.780260086E0,-1.497906923E0,1.235653591E1,1.257366418E1
4.172798900E-2,-7.944171429E-1,1.244267747E-1,6.900900364E0,6.947589974E0
4.410356200E-2,1.914258152E-1,-1.138983607E0,1.352423382E1,1.357346042E1
4.647918700E-2,9.236295223E-1,-3.876372576E-1,6.331408501E0,6.410155048E0
4.885476000E-2,-1.502692580E0,-5.599204898E-1,1.241874981E1,1.252185860E1
5.123038500E-2,2.584248543E0,-7.752745152E-1,8.063812256E0,8.503202879E0
5.360595800E-2,-1.904686809E0,9.571290575E-3,1.078684425E1,1.095371774E1
5.598153100E-2,2.713460922E0,-1.406979680E0,1.044227791E1,1.088042416E1
5.835715600E-2,-1.995614052E0,4.402793646E-1,8.140382767E0,8.392982363E0
6.073278100E-2,1.301695466E0,-1.555334687E0,1.297867012E1,1.313618495E1
6.310830200E-2,1.004985496E-1,-6.699903309E-2,6.628118515E0,6.629218949E0
6.548392700E-2,-1.962114573E-1,-1.071984529E0,1.315573883E1,1.320079975E1
6.785955200E-2,1.684547186E0,-5.072783828E-1,6.747759819E0,6.973327266E0
7.023512500E-2,-1.545763373E0,-4.977070987E-1,1.194497108E1,1.205485093E1
7.261075000E-2,3.043670416E0,-1.043270707E0,8.867800713E0,9.433463460E0
7.498627100E-2,-1.885544300E0,2.536391914E-1,9.958928108E0,1.013902654E1
7.736194800E-2,2.589034081E0,-1.631905079E0,1.138983536E1,1.179383573E1
7.973752100E-2,-1.148554921E0,2.488535494E-1,7.475177765E0,7.566993400E0
8.211314600E-2,1.000199914E0,-1.483550072E0,1.336152172E1,1.348078571E1
8.448871900E-2,8.997012973E-1,-2.297109663E-1,6.565905571E0,6.631240119E0
8.686434400E-2,-6.029912829E-1,-9.810572863E-1,1.272503090E1,1.277702952E1
8.923991700E-2,2.455035925E0,-6.508477330E-1,7.345965385E0,7.772645084E0
9.161554200E-2,-1.454836130E0,-3.014956415E-1,1.136112213E1,1.145785948E1
9.399111400E-2,3.306880951E0,-1.301695466E0,9.791430473E0,1.041642853E1
9.636673900E-2,-1.923829436E0,3.397808075E-1,8.896514893E0,9.108487686E0
9.874231200E-2,2.091326952E0,-1.617548108E0,1.240917778E1,1.268770284E1
1.011178850E-1,-4.211367965E-1,3.828516230E-2,6.910471916E0,6.923398303E0
1.034935100E-1,4.689932466E-1,-1.220339537E0,1.349073410E1,1.355393263E1
1.058691350E-1,1.349551916E0,-4.785645306E-1,6.561119556E0,6.715549435E0
1.082447080E-1,-1.258624673E0,-6.795616150E-1,1.232303619E1,1.240577128E1
1.106203330E-1,2.660818815E0,-8.757730722E-1,8.092526436E0,8.563639376E0
1.129959060E-1,-1.732403636E0,-1.004985496E-1,1.080120182E1,1.093971129E1
1.153715310E-1,2.857030153E0,-1.526620865E0,1.049491978E1,1.098346638E1
1.177471040E-1,-1.909472466E0,3.158525825E-1,8.269595146E0,8.493059039E0
1.201227290E-1,1.158126116E0,-1.569691658E0,1.291167068E1,1.305819390E1
1.224983020E-1,1.914258115E-2,-1.770688742E-1,6.723831654E0,6.726190001E0
1.248738750E-1,-3.206382394E-1,-1.095912814E0,1.326580906E1,1.331486101E1
1.272495000E-1,1.603191137E0,-6.939185858E-1,6.819544315E0,7.039739306E0
1.296250730E-1,-1.842473388E0,-5.407779217E-1,1.190190029E1,1.205580273E1
1.320006980E-1,2.727817774E0,-1.162911773E0,8.858229637E0,9.341391005E0
1.343762710E-1,-2.100898266E0,2.057827413E-1,9.939785004E0,1.016146869E1
1.367518960E-1,2.277967215E0,-1.751546144E0,1.146162033E1,1.181633569E1
1.391274690E-1,-1.459621787E0,3.637090325E-1,7.451249599E0,7.601572246E0
1.415030940E-1,5.072783828E-1,-1.521835208E0,1.336152172E1,1.345747289E1
1.438786670E-1,6.460621357E-1,-3.062812984E-1,6.647261143E0,6.685602831E0
1.462542920E-1,-1.038485050E0,-9.810572863E-1,1.272024536E1,1.280021745E1
1.486298640E-1,2.100898266E0,-7.226324677E-1,7.499105930E0,7.821288958E0
1.510054370E-1,-1.852044702E0,-2.488535494E-1,1.117448139E1,1.132965278E1
1.533810620E-1,2.938386202E0,-1.411765337E0,9.810572624E0,1.033801384E1
1.557566870E-1,-2.033899307E0,2.967100143E-1,8.829515457E0,9.065601273E0
1.581322600E-1,1.722832322E0,-1.617548108E0,1.246182060E1,1.268391051E1
1.605078850E-1,-5.886343718E-1,3.349951655E-2,6.843472958E0,6.868823390E0
1.628834060E-1,1.579262912E-1,-1.253839016E0,1.337587833E1,1.343544470E1
1.652590830E-1,1.368694544E0,-4.546363056E-1,6.809973240E0,6.961016769E0
1.676346560E-1,-1.344766378E0,-6.891329288E-1,1.216989613E1,1.226334671E1
1.700102810E-1,2.689532757E0,-8.470591903E-1,8.121239662E0,8.596838336E0
1.723858540E-1,-1.708475351E0,-2.871387079E-2,1.045184898E1,1.059060242E1
1.747614790E-1,2.995813847E0,-1.512263894E0,1.081555843E1,1.132422831E1
1.771370520E-1,-1.540977836E0,3.206382394E-1,7.987242222E0,8.140851300E0
1.795126770E-1,1.205982566E0,-1.497906923E0,1.307438278E1,1.321505218E1
1.818882500E-1,3.972085714E-1,-1.770688742E-1,6.642475605E0,6.656696643E0
1.842638230E-1,-7.657032460E-2,-1.071984529E0,1.324188042E1,1.328542099E1
1.866394480E-1,2.038684845E0,-6.795616150E-1,7.054041386E0,7.374112811E0
1.890150210E-1,-1.545763373E0,-4.115654826E-1,1.167218876E1,1.178128860E1
1.913906460E-1,3.077169895E0,-1.167697430E0,9.044869423E0,9.625079466E0
1.937662190E-1,-1.631905079E0,1.339980662E-1,9.705288887E0,9.842443906E0
1.961418440E-1,2.574677229E0,-1.775474429E0,1.163390350E1,1.204694912E1
1.985174170E-1,-9.906286001E-1,3.972085714E-1,7.393822193E0,7.470456900E0
2.008930420E-1,5.790630579E-1,-1.454836130E0,1.334237862E1,1.343394690E1
2.032686140E-1,1.115055323E0,-3.732803464E-1,6.738188744E0,6.840020039E0
2.056442390E-1,-7.944171429E-1,-9.188438654E-1,1.264367485E1,1.270188515E1
2.080198120E-1,2.340180635E0,-7.417750359E-1,7.700103283E0,8.081971676E0
2.103954370E-1,-1.789831281E0,-1.962114573E-1,1.097348499E1,1.112022337E1
2.127710100E-1,3.000599623E0,-1.497906923E0,9.968499184E0,1.051752344E1
2.151466350E-1,-1.828116536E0,3.110669553E-1,8.786444664E0,8.979999029E0
2.175222080E-1,1.622333765E0,-1.665404558E0,1.261974621E1,1.283212896E1
2.198978330E-1,-5.216353536E-1,8.614161611E-2,6.795616150E0,6.816151603E0
2.222734060E-1,-1.962114573E-1,-1.363908887E0,1.339023590E1,1.346094959E1
2.246490310E-1,1.416550994E0,-4.737788737E-1,7.025327206E0,7.182360718E0
2.270246040E-1,-1.603191137E0,-6.508477330E-1,1.212203979E1,1.224490398E1
2.294002290E-1,2.483749866E0,-9.619147182E-1,8.432307243E0,8.842968889E0
2.317758020E-1,-2.086541414E0,2.871387079E-2,1.015035343E1,1.036263260E1
2.341514270E-1,2.651247501E0,-1.569691658E0,1.109791183E1,1.151766870E1
2.365270000E-1,-1.756331801E0,3.732803464E-1,7.738388538E0,7.943972355E0
2.389026250E-1,6.652047038E-1,-1.430907965E0,1.328495121E1,1.337833785E1
2.412781980E-1,1.483550072E-1,-1.387837082E-1,6.494120598E0,6.497297320E0
2.436537710E-1,-6.317051649E-1,-1.000199914E0,1.323230934E1,1.328508418E1
2.460293960E-1,1.861616015E0,-5.790630579E-1,7.312466145E0,7.567898607E0
2.484049690E-1,-1.938186288E0,-2.009970993E-1,1.143769264E1,1.160249020E1
2.507805940E-1,2.679961443E0,-1.091127157E0,9.193224907E0,9.637849138E0
2.531561670E-1,-1.895115495E0,2.871387303E-1,9.360722542E0,9.554948346E0
2.555317920E-1,2.254039049E0,-1.603191137E0,1.196889877E1,1.228435801E1
2.579073640E-1,-9.906286001E-1,4.450650215E-1,7.077969551E0,7.160801691E0
2.602829890E-1,1.339980662E-1,-1.239482164E0,1.335195065E1,1.341002825E1
2.626585620E-1,1.095912814E0,-2.105683982E-1,6.719046116E0,6.811089829E0
2.650341870E-1,-8.901300430E-1,-7.561319470E-1,1.255753326E1,1.261172901E1
2.674097600E-1,2.522035122E0,-5.838487148E-1,7.977670670E0,8.387178893E0
2.697853850E-1,-1.842473388E0,2.871387079E-2,1.041835022E1,1.058005454E1
2.721609580E-1,3.034099102E0,-1.354337573E0,1.020299530E1,1.073038213E1
2.745365830E-1,-1.426122308E0,5.407779217E-1,8.413164139E0,8.550298031E0
2.769121560E-1,1.655833244E0,-1.507478237E0,1.271067429E1,1.290641372E1
2.792877810E-1,-3.828516230E-2,3.302095234E-1,6.604190350E0,6.612551267E0
2.816633540E-1,-2.009970993E-1,-1.110269666E0,1.326580906E1,1.331370679E1
2.840389790E-1,1.928615093E0,-3.302095234E-1,7.259823799E0,7.518885296E0
2.864145520E-1,-1.330409408E0,-5.216353536E-1,1.185882950E1,1.194461928E1
2.887901770E-1,2.809173822E0,-7.992027402E-1,8.685946465E0,9.163833727E0
2.911657500E-1,-1.847259045E0,2.105683982E-1,9.729216576E0,9.905269315E0
2.935413230E-1,2.818745136E0,-1.641476393E0,1.127498055E1,1.173733169E1
2.959169480E-1,-1.067198873E0,4.354937077E-1,7.575676441E0,7.662861198E0
2.982925730E-1,7.226324677E-1,-1.330409408E0,1.327538013E1,1.336143348E1
3.006681460E-1,5.694918036E-1,-1.244267747E-1,6.494120598E0,6.520230462E0
3.030437190E-1,-6.604190469E-1,-1.004985452E0,1.295952702E1,1.301520225E1
3.054193440E-1,2.277967215E0,-5.742774606E-1,7.767102242E0,8.114604517E0
3.077949690E-1,-1.799402595E0,-2.153540403E-1,1.100219822E1,1.115045258E1
3.101705420E-1,2.732603550E0,-1.172483087E0,9.466006279E0,9.922051886E0
3.125461140E-1,-1.861616015E0,2.153540403E-1,8.839086533E0,9.035565410E0
3.149217390E-1,2.115255117E0,-1.646261930E0,1.234696484E1,1.263455671E1
3.172973120E-1,-6.795616150E-1,3.110669553E-1,6.766902447E0,6.808049307E0
3.196729370E-1,-3.206382394E-1,-1.210768223E0,1.345723438E1,1.351539588E1
3.220485620E-1,1.186840057E0,-3.158525825E-1,6.728617191E0,6.839783731E0
3.244241350E-1,-1.225125194E0,-7.992027402E-1,1.256231880E1,1.264719378E1
3.267997080E-1,2.378465652E0,-7.417750359E-1,8.274380684E0,8.641336978E0
3.291753330E-1,-2.182254314E0,6.221338734E-2,1.015513897E1,1.038715321E1
3.315509060E-1,2.641676188E0,-1.517049551E0,1.051406288E1,1.094647937E1
3.339264790E-1,-1.545763373E0,3.828516304E-1,8.135597229E0,8.289988061E0
3.363021040E-1,1.091127157E0,-1.598405480E0,1.297867012E1,1.312216966E1
3.386777290E-1,-1.292124242E-1,2.584248483E-1,6.451049805E0,6.457516770E0
3.410533020E-1,-8.901300430E-1,-1.110269666E0,1.320359516E1,1.328005856E1
3.434289270E-1,1.866401672E0,-4.977070987E-1,7.518248558E0,7.762424166E0
3.458045000E-1,-1.698904037E0,-5.503492355E-1,1.148554897E1,1.162355343E1
3.481801250E-1,2.512463808E0,-9.284151793E-1,9.159725189E0,9.543321994E0
3.505556980E-1,-2.081755638E0,2.105683982E-1,9.288937569E0,9.521680878E0
3.529313230E-1,2.411965132E0,-1.727617979E0,1.164826107E1,1.202015914E1
3.553068960E-1,-9.667003751E-1,3.684946895E-1,7.350750923E0,7.423195881E0
3.576825210E-1,1.914258152E-1,-1.359123230E0,1.341416359E1,1.348419981E1
3.600580940E-1,6.987041831E-1,-2.009970993E-1,6.474977970E0,6.515667816E0
3.624337190E-1,-1.043270707E0,-1.038485050E0,1.291167068E1,1.299531088E1
3.648092920E-1,2.397608280E0,-6.508477330E-1,8.154739380E0,8.524781674E0
3.671849170E-1,-1.957328916E0,-1.818545163E-1,1.072941685E1,1.090800593E1
3.695604890E-1,2.761317253E0,-1.301695466E0,9.877572060E0,1.033855473E1
3.719361140E-1,-1.770688772E0,2.057827413E-1,8.441878319E0,8.628035397E0
3.743116870E-1,1.871187329E0,-1.665404558E0,1.276331615E1,1.300681182E1
3.766873120E-1,-2.871387303E-1,2.057827413E-1,6.623332977E0,6.632747162E0
3.790628850E-1,-4.737788737E-1,-1.158126116E0,1.338066387E1,1.343904342E1
3.814385100E-1,1.493121386E0,-3.684946895E-1,7.025327206E0,7.191691189E0
3.838140830E-1,-1.292124271E0,-8.231309652E-1,1.233260822E1,1.242740340E1
3.861897080E-1,2.608176708E0,-8.039883971E-1,8.772088051E0,9.186866270E0
3.885652810E-1,-2.100898266E0,1.052841991E-1,9.772287369E0,9.996122183E0
3.909409060E-1,2.598605394E0,-1.584048629E0,1.092562866E1,1.134157492E1
3.933164790E-1,-1.162911773E0,2.488535494E-1,7.733603001E0,7.824506838E0
3.956921040E-1,1.009771109E0,-1.493121386E0,1.332323647E1,1.344461524E1
3.980676770E-1,3.589234054E-1,7.178468257E-2,6.336194515E0,6.346758227E0
4.004431980E-1,-1.100698471E0,-1.014556766E0,1.310309696E1,1.318832865E1
4.028188750E-1,2.225325108E0,-5.407779217E-1,7.776673794E0,8.106859311E0
4.051944480E-1,-1.636690736E0,-4.354937077E-1,1.135633659E1,1.148193329E1
4.075700730E-1,2.632104874E0,-1.028913736E0,9.389435768E0,9.805515978E0
4.099456460E-1,-2.086541414E0,2.584248483E-1,8.810373306E0,9.057765523E0
4.123212710E-1,2.268395901E0,-1.756331801E0,1.197846985E1,1.231722620E1
4.146968440E-1,-3.972085714E-1,3.397808075E-1,7.097112179E0,7.116335217E0
4.170724690E-1,-1.435693540E-2,-1.258624673E0,1.335673618E1,1.341591382E1
4.194480420E-1,1.115055323E0,-1.435693651E-1,6.647261143E0,6.741664574E0
4.218236670E-1,-1.205982566E0,-9.140582681E-1,1.262931824E1,1.271965312E1
4.241992390E-1,2.627319336E0,-6.412764788E-1,8.537590981E0,8.955696632E0
4.265748640E-1,-1.933400750E0,-6.699903309E-2,1.024128056E1,1.042239679E1
4.289504890E-1,2.723032236E0,-1.359123230E0,1.028913784E1,1.072979394E1
4.313260620E-1,-1.507478237E0,3.158525825E-1,8.020741463E0,8.167285173E0
4.337016350E-1,1.694118381E0,-1.612762451E0,1.300738430E1,1.321601627E1
4.360772600E-1,1.722832322E-1,1.866401732E-1,6.379265308E0,6.384320006E0
4.384528330E-1,-7.609176040E-1,-9.667003751E-1,1.332802200E1,1.338468064E1
4.408284580E-1,1.871187329E0,-3.972085714E-1,7.240681171E0,7.489097442E0
4.432040310E-1,-1.392622828E0,-6.269195080E-1,1.189232826E1,1.198999157E1
4.455796560E-1,2.746960402E0,-8.901300430E-1,9.174081802E0,9.617790799E0
4.479552290E-1,-2.172683001E0,2.392822653E-1,9.198010445E0,9.454163293E0
4.503308540E-1,2.450250387E0,-1.555334687E0,1.138026428E1,1.174449693E1
4.527064270E-1,-8.039883971E-1,2.105683982E-1,7.288537979E0,7.335770053E0
4.550820520E-1,6.317051649E-1,-1.359123230E0,1.349551964E1,1.357848731E1
4.574576250E-1,7.178468108E-1,-1.100698411E-1,6.345765591E0,6.387187201E0
4.598332500E-1,-1.349551916E0,-8.709874153E-1,1.296909904E1,1.306818425E1
4.622087710E-1,2.388036966E0,-6.699903607E-1,8.135597229E0,8.505266010E0
4.645844480E-1,-1.732403636E0,-2.679961324E-1,1.094955635E1,1.108899583E1
4.669600210E-1,2.632104874E0,-1.234696507E0,9.954142570E0,1.037002439E1
4.693356460E-1,-2.038684845E0,2.249253243E-1,8.264809608E0,8.515509683E0
4.717112190E-1,1.799402595E0,-1.765903115E0,1.249532032E1,1.274712883E1
4.740868440E-1,-1.674975902E-1,1.627119333E-1,6.675975323E0,6.680058168E0
4.764624170E-1,-4.929214716E-1,-1.268195987E0,1.347159195E1,1.354012859E1
4.788380420E-1,1.406979680E0,-2.679961324E-1,6.814758778E0,6.963644947E0
4.812136140E-1,-1.770688772E0,-8.087740541E-1,1.222253799E1,1.237658633E1
4.835892390E-1,2.636890650E0,-7.752745152E-1,9.169296265E0,9.572368404E0
4.859648120E-1,-2.110469580E0,-6.221338734E-2,9.623932838E0,9.852818664E0
4.883404370E-1,2.402393818E0,-1.469193101E0,1.092084217E1,1.127806801E1
4.907160100E-1,-1.344766378E0,2.536391914E-1,7.427321434E0,7.552339580E0
4.930916350E-1,1.095912814E0,-1.598405480E0,1.323230934E1,1.337347881E1
4.954672080E-1,5.934200287E-1,3.349951655E-2,6.250052929E0,6.278250645E0
4.978428330E-1,-1.172483087E0,-9.571290612E-1,1.328016567E1,1.336613680E1
5.002184060E-1,2.143969059E0,-4.354937077E-1,7.503891945E0,7.816306827E0
5.025940310E-1,-1.722832322E0,-4.737788737E-1,1.140419292E1,1.154331988E1
5.049696040E-1,2.924029350E0,-1.009771109E0,9.863214493E0,1.033695243E1
5.073452290E-1,-2.062613010E0,1.818545163E-1,8.494520187E0,8.743244061E0
5.097208020E-1,2.110469580E0,-1.536192179E0,1.200718403E1,1.228765383E1
5.120964270E-1,-2.727817893E-1,9.092725813E-2,6.613761902E0,6.620009378E0
5.144720000E-1,3.828516304E-1,-1.162911773E0,1.366780281E1,1.372252793E1
5.168475730E-1,1.387837172E0,-1.435693651E-1,6.273981094E0,6.427250030E0
5.192231980E-1,-1.488335729E0,-6.460621357E-1,1.276331615E1,1.286603198E1
5.215988230E-1,2.804388046E0,-6.652047038E-1,8.413164139E0,8.893167065E0
5.239743960E-1,-1.679761529E0,-1.435693540E-2,1.040877819E1,1.054345619E1
5.263499690E-1,2.861815929E0,-1.320838094E0,1.052841949E1,1.099009648E1
5.287255940E-1,-1.507478237E0,4.019941986E-1,7.657032490E0,7.814360916E0
5.311012190E-1,1.636690736E0,-1.526620865E0,1.288295746E1,1.307592906E1
5.334767920E-1,7.178468108E-1,5.742774159E-2,6.250052929E0,6.291403945E0
5.358523640E-1,-5.120640397E-1,-9.523434043E-1,1.346680546E1,1.351014496E1
5.382279890E-1,2.277967215E0,-2.344966233E-1,7.087540627E0,7.448312254E0
5.406035620E-1,-1.713261008E0,-4.977070987E-1,1.179183006E1,1.192603169E1
5.429791870E-1,3.058027267E0,-8.901300430E-1,9.628718376E0,1.014179865E1
5.453547600E-1,-1.813759565E0,1.196411327E-1,9.020941734E0,9.202251221E0
5.477303850E-1,2.435893536E0,-1.512263894E0,1.165783215E1,1.200523093E1
5.501059580E-1,-7.848458290E-1,2.440679073E-1,6.714260101E0,6.764380299E0
5.524815830E-1,5.886343718E-1,-1.383051515E0,1.347637749E1,1.355994366E1
5.548572080E-1,1.359123230E0,-1.100698411E-1,6.321837425E0,6.467221950E0
5.572327810E-1,-1.521835208E0,-8.614161611E-1,1.296909904E1,1.308646439E1
5.596083540E-1,2.455035925E0,-4.833501875E-1,8.073383331E0,8.452239183E0
5.619839790E-1,-1.981257200E0,-2.919243574E-1,1.081555843E1,1.099940472E1
5.643595520E-1,2.785245657E0,-1.201196909E0,1.054756260E1,1.097504188E1
5.667351770E-1,-2.033899307E0,1.674975902E-1,7.968099594E0,8.225291057E0
5.691108020E-1,1.488335729E0,-1.531406522E0,1.258624744E1,1.276612603E1
5.714863750E-1,-1.004985496E-1,-9.092725813E-2,6.221338749E0,6.222814761E0
5.738619480E-1,-3.972085714E-1,-1.071984529E0,1.376830196E1,1.381568183E1
5.762375730E-1,1.775474429E0,-4.546363056E-1,6.656832695E0,6.904522080E0
5.786131460E-1,-2.297109842E0,-4.450650215E-1,1.233739376E1,1.255731187E1
5.809887710E-1,2.617748022E0,-9.188438654E-1,9.245866776E0,9.653130642E0
5.833643440E-1,-2.177468538E0,-4.307080805E-2,9.571290970E0,9.815948001E0
5.857399690E-1,2.263610125E0,-1.478764415E0,1.148076344E1,1.179485498E1
5.881155420E-1,-1.406979680E0,1.866401732E-1,7.087540627E0,7.228254181E0
5.904911670E-1,5.407779217E-1,-1.402194023E0,1.316530991E1,1.325081031E1
5.928667390E-1,8.566305041E-1,-2.057827413E-1,6.250052929E0,6.311839983E0
5.952423640E-1,-1.263410330E0,-8.949156404E-1,1.341416359E1,1.350321682E1
5.976178850E-1,2.311466694E0,-5.072783828E-1,7.657032490E0,8.014384330E0
5.999935620E-1,-2.354537487E0,-2.009970993E-1,1.121755219E1,1.146375696E1
6.023691350E-1,2.837887764E0,-1.186840057E0,1.033220863E1,1.078038643E1
6.047447600E-1,-1.904686809E0,1.435693651E-1,8.389236450E0,8.603937019E0
6.071203330E-1,1.832902193E0,-1.517049551E0,1.250489140E1,1.272922930E1
6.094959580E-1,-3.445664644E-1,1.004985496E-1,6.307480335E0,6.317684242E0
6.118715310E-1,-1.004985496E-1,-1.249053478E0,1.341416359E1,1.347256543E1
6.142471560E-1,2.014756680E0,-3.302095234E-1,6.714260101E0,7.017803895E0
6.166227290E-1,-1.765903115E0,-6.029912829E-1,1.260060406E1,1.273802319E1
6.189983540E-1,2.780459881E0,-6.747759581E-1,8.695517540E0,9.154141414E0
6.213739270E-1,-2.086541414E0,-5.264209956E-2,1.004985523E1,1.026430789E1
6.237495520E-1,2.880958557E0,-1.450050473E0,1.146162033E1,1.190677577E1
6.261251250E-1,-1.239482164E0,1.674975902E-1,7.331608772E0,7.437530415E0
6.285007500E-1,1.067198873E0,-1.287338614E0,1.308873940E1,1.319512232E1
6.308763230E-1,7.704889178E-1,-2.249253243E-1,6.001199245E0,6.054637640E0
6.332519480E-1,-5.934200287E-1,-9.667003751E-1,1.354337597E1,1.359079430E1
6.356275210E-1,2.641676188E0,-6.077769399E-1,7.250252724E0,7.740414100E0
6.380031460E-1,-2.191825628E0,-1.196411327E-1,1.170568848E1,1.190972528E1
6.403787190E-1,2.885744095E0,-1.153340459E0,9.882357597E0,1.035947416E1
6.427543440E-1,-1.885544300E0,-4.785645287E-3,8.824729919E0,9.023921451E0
6.451299170E-1,2.100898266E0,-1.473978758E0,1.245224857E1,1.271396403E1
6.475055420E-1,-6.077769399E-1,-4.785645287E-3,6.489335060E0,6.517736205E0
6.498811140E-1,-9.571290575E-3,-1.182054400E0,1.325145149E1,1.330407121E1
6.522567390E-1,1.555334687E0,-4.737788737E-1,6.427121639E0,6.629587089E0
6.546323120E-1,-1.531406522E0,-6.795616150E-1,1.296431351E1,1.307212434E1
6.570078850E-1,2.627319336E0,-7.417750359E-1,8.307880402E0,8.744936470E0
6.593835100E-1,-2.598605394E0,1.674975902E-1,1.035613632E1,1.067850013E1
6.617591350E-1,2.507678032E0,-1.473978758E0,1.111705399E1,1.149129896E1
6.641347080E-1,-1.459621787E0,1.674975902E-1,7.800601959E0,7.937754225E0
6.665103330E-1,9.140582681E-1,-1.430907965E0,1.295952702E1,1.307028464E1
6.688859060E-1,1.914258115E-2,-9.571290575E-3,6.044270039E0,6.044307930E0
6.712615310E-1,-9.284151793E-1,-1.000199914E0,1.322273827E1,1.329297415E1
6.736371040E-1,2.306680918E0,-5.264210105E-1,7.178467751E0,7.558326216E0
6.760127290E-1,-2.263610125E0,-2.440679073E-1,1.194018459E1,1.215530781E1
6.783883020E-1,2.617748022E0,-8.949156404E-1,9.389435768E0,9.788512796E0
6.807639270E-1,-2.493321180E0,2.009970993E-1,9.068798065E0,9.407451764E0
6.831395000E-1,2.105684042E0,-1.526620865E0,1.228953743E1,1.256173582E1
6.855151250E-1,-7.417750359E-1,7.657032460E-2,6.781259537E0,6.822138530E0
6.878906980E-1,7.178468257E-2,-1.038485050E0,1.309831142E1,1.313961059E1
6.902663230E-1,1.138983607E0,-3.302095234E-1,6.183053493E0,6.295750352E0
6.926418960E-1,-1.292124271E0,-7.274180651E-1,1.281595802E1,1.290145349E1
6.950175210E-1,2.852244616E0,-6.221339107E-1,8.149953842E0,8.657025908E0
6.973930940E-1,-2.368894339E0,1.770688742E-1,1.067198944E1,1.093317760E1
6.997687190E-1,2.694318295E0,-1.325623751E0,1.058106136E1,1.099888581E1
7.021442920E-1,-1.545763373E0,1.339980662E-1,8.092526436E0,8.239922573E0
7.045199170E-1,1.555334687E0,-1.354337573E0,1.307916832E1,1.324076811E1
7.068954890E-1,1.914258152E-1,-1.244267747E-1,6.053841114E0,6.058144774E0
7.092711140E-1,-4.785645306E-1,-8.757730722E-1,1.311745358E1,1.315536357E1
7.116466870E-1,2.402393818E0,-6.029912829E-1,6.876972198E0,7.309435078E0
7.140223120E-1,-1.488335729E0,-3.206382394E-1,1.226082325E1,1.235498842E1
7.163978850E-1,3.067598581E0,-9.810572863E-1,8.973084450E0,9.533565912E0
7.187735100E-1,-2.230110645E0,3.637090325E-1,9.470791817E0,9.736610056E0
7.211490830E-1,2.407179594E0,-1.612762451E0,1.195454216E1,1.230067456E1
7.235247080E-1,-4.785645306E-1,2.871387079E-2,7.207181931E0,7.223110125E0
7.259002810E-1,5.455635786E-1,-1.215553880E0,1.311745358E1,1.318494593E1
7.282758540E-1,1.138983607E0,-2.919243574E-1,6.230910301E0,6.340879014E0
7.306514790E-1,-1.172483087E0,-7.609176040E-1,1.268196011E1,1.275875481E1
7.330271040E-1,2.991028309E0,-7.896314859E-1,8.011170387E0,8.587701625E0
7.354026770E-1,-1.995614052E0,9.571290761E-2,1.102612686E1,1.120567312E1
7.377783020E-1,2.756531715E0,-1.378265858E0,1.034177971E1,1.079122289E1
7.401538750E-1,-1.928615093E0,3.302095234E-1,8.221738815E0,8.451365786E0
7.425295000E-1,1.483550072E0,-1.526620865E0,1.297388458E1,1.314736374E1
7.449050730E-1,1.483550072E-1,-1.100698411E-1,6.479763508E0,6.482396138E0
7.472806980E-1,-5.694918036E-1,-9.188438654E-1,1.303131199E1,1.307607308E1
7.496562190E-1,1.828116536E0,-5.503492355E-1,6.766902447E0,7.031064150E0
7.520318960E-1,-1.670190215E0,-4.929214716E-1,1.208375454E1,1.220858840E1
7.544074690E-1,2.909672260E0,-9.332008362E-1,9.073583603E0,9.574287225E0
7.567830940E-1,-2.536391973E0,3.349951804E-1,9.585647583E0,9.921196783E0
7.591586670E-1,2.009970903E0,-1.512263894E0,1.175354481E1,1.201968139E1
7.615342920E-1,-1.052842021E0,1.004985496E-1,7.322037220E0,7.398027124E0
7.639098640E-1,3.972085714E-1,-1.182054400E0,1.336152172E1,1.341958606E1
7.662854890E-1,6.891329288E-1,-3.445664644E-1,6.355337143E0,6.401870074E0
7.686610620E-1,-1.459621787E0,-6.221339107E-1,1.256710434E1,1.266687246E1
7.710366870E-1,2.483749866E0,-7.848458290E-1,7.838887215E0,8.260335897E0
7.734122600E-1,-1.986042738E0,-9.571290575E-3,1.109312534E1,1.126951140E1
7.757878850E-1,2.689532757E0,-1.383051515E0,1.019820976E1,1.063719419E1
7.781634580E-1,-2.172683001E0,4.642075896E-1,8.413164139E0,8.701572900E0
7.805390830E-1,1.177268744E0,-1.588834286E0,1.277767277E1,1.292978258E1
7.829146560E-1,-1.435693540E-2,-7.178468257E-2,6.819544315E0,6.819937231E0
7.852902810E-1,-4.163511395E-1,-9.906286001E-1,1.301695538E1,1.306123350E1
7.876658540E-1,1.593619823E0,-5.455635786E-1,6.857829571E0,7.061663415E0
7.900414790E-1,-1.751546144E0,-3.828516304E-1,1.183968639E1,1.197466756E1
7.924170520E-1,2.880958557E0,-1.057627559E0,8.815158844E0,9.334105405E0
7.947926770E-1,-2.024327993E0,3.254238665E-1,9.930213928E0,1.013967224E1
7.971682500E-1,2.325823545E0,-1.627119422E0,1.147119141E1,1.181715723E1
7.995438750E-1,-1.129412293E0,3.349951804E-1,7.374679565E0,7.468178666E0
8.019194480E-1,5.742774606E-1,-1.368694544E0,1.327538013E1,1.335810005E1
8.042950730E-1,1.086341500E0,-2.679961324E-1,6.728617191E0,6.821015254E0
8.066706460E-1,-1.024128079E0,-8.327022791E-1,1.256231880E1,1.263147201E1
8.090462710E-1,2.560320139E0,-6.939185858E-1,7.676175117E0,8.121602468E0
8.114217920E-1,-1.670190215E0,-1.244267747E-1,1.101177025E1,1.113840659E1
8.137974690E-1,3.177668571E0,-1.421336651E0,1.020778179E1,1.078501667E1
8.161730420E-1,-1.746760488E0,3.589234054E-1,8.489734650E0,8.674998134E0
8.185486670E-1,1.593619823E0,-1.545763373E0,1.277288723E1,1.296439959E1
8.209242390E-1,-1.435693540E-2,-8.614161611E-2,6.762116909E0,6.762680799E0
8.232998640E-1,-4.785645287E-3,-1.138983607E0,1.328973675E1,1.333845603E1
8.256754370E-1,1.818545222E0,-5.838487148E-1,7.010970116E0,7.266477001E0
8.280510620E-1,-1.564906001E0,-4.881358147E-1,1.185404301E1,1.196685184E1
8.304266350E-1,2.866601467E0,-1.004985452E0,8.772088051E0,9.283152940E0
8.328022600E-1,-1.866401672E0,7.657032460E-2,9.844072342E0,1.001973445E1
8.351778330E-1,2.598605394E0,-1.636690736E0,1.154297638E1,1.194453056E1
8.375534580E-1,-1.196411371E0,3.254238665E-1,7.513463020E0,7.615078950E0
8.399290310E-1,3.732803464E-1,-1.411765337E0,1.323230934E1,1.331264174E1
8.423046560E-1,8.039883971E-1,-2.871387303E-1,6.747759819E0,6.801551924E0
8.446802290E-1,-9.714859724E-1,-9.475577474E-1,1.279202938E1,1.286381228E1
8.470558540E-1,2.206182480E0,-6.747759581E-1,7.719245911E0,8.056632122E0
8.494314270E-1,-2.043470621E0,-1.627119333E-1,1.085384369E1,1.104573086E1
8.518070520E-1,2.727817774E0,-1.378265858E0,9.925428391E0,1.038531344E1
8.541826250E-1,-1.856830359E0,3.828516304E-1,8.757730484E0,8.960593595E0
8.565582500E-1,1.469193101E0,-1.684547186E0,1.252403355E1,1.272193554E1
8.589338230E-1,-4.450650215E-1,2.727817893E-1,6.809973240E0,6.829950828E0
8.613094480E-1,-5.312066078E-1,-1.225125194E0,1.318923855E1,1.325666344E1
8.636850210E-1,1.569691658E0,-4.307080805E-1,7.221538544E0,7.402706281E0
8.660606460E-1,-1.622333765E0,-5.886343718E-1,1.183968639E1,1.196480803E1
8.684362710E-1,2.445464849E0,-8.087740541E-1,8.595019341E0,8.972668013E0
8.708118440E-1,-2.167897224E0,2.249253243E-1,9.748359680E0,9.989038304E0
8.731874690E-1,2.608176708E0,-1.636690736E0,1.128933716E1,1.170172961E1
8.755630420E-1,-1.268195987E0,4.115654826E-1,7.465606689E0,7.583731961E0
8.779386670E-1,3.493520916E-1,-1.287338614E0,1.331366539E1,1.338032039E1
8.803142390E-1,5.072783828E-1,-4.785645381E-2,6.508477688E0,6.528392100E0
8.826898120E-1,-8.757730722E-1,-9.427721500E-1,1.285424328E1,1.291848939E1
8.850654370E-1,2.287538528E0,-5.790630579E-1,7.910671711E0,8.255111959E0
8.874410620E-1,-1.895115495E0,-9.092725813E-2,1.074377346E1,1.091001369E1
8.898166350E-1,2.785245657E0,-1.177268744E0,9.638289452E0,1.010149388E1
8.921922600E-1,-1.646261930E0,3.206382394E-1,8.662017822E0,8.822898615E0
8.945678330E-1,1.995614052E0,-1.627119422E0,1.251446247E1,1.277661004E1
8.969434580E-1,-3.014956415E-1,3.206382394E-1,6.757331371E0,6.771649412E0
8.993190310E-1,-2.871387303E-1,-1.134197950E0,1.326580906E1,1.331730242E1
9.016946560E-1,1.612762451E0,-3.924229145E-1,6.972685337E0,7.167519744E0
9.040702290E-1,-1.095912814E0,-6.891329288E-1,1.230867958E1,1.237657150E1
9.064458540E-1,2.713460922E0,-8.662018180E-1,8.604590416E0,9.063782433E0
9.088214270E-1,-1.971685886E0,1.722832322E-1,9.805787086E0,1.000353373E1
9.111970520E-1,2.790031195E0,-1.627119422E0,1.095434189E1,1.142056907E1
9.135726250E-1,-9.236295223E-1,2.392822653E-1,7.762316704E0,7.820735778E0
9.159482500E-1,9.619147182E-1,-1.603191137E0,1.317966747E1,1.331161660E1
9.183238230E-1,5.216353536E-1,5.742774159E-2,6.541976929E0,6.562991964E0
9.206994480E-1,-8.709874153E-1,-1.134197950E0,1.301216984E1,1.309051519E1
9.230750210E-1,2.392822742E0,-6.652047038E-1,7.982456207E0,8.359886666E0
9.254506460E-1,-1.641476393E0,-4.594219327E-1,1.118405342E1,1.131320309E1
9.278262190E-1,2.737389088E0,-1.205982566E0,9.533005714E0,9.991290753E0
9.302018440E-1,-1.933400750E0,1.531406492E-1,8.772088051E0,8.983931171E0
9.325774170E-1,2.196611166E0,-1.904686809E0,1.216511059E1,1.250771154E1
9.349530420E-1,-3.541377485E-1,2.249253243E-1,6.996613503E0,7.009180084E0
9.373286140E-1,-2.440679073E-1,-1.306481123E0,1.349073410E1,1.355604546E1
9.397042390E-1,1.143769264E0,-3.445664644E-1,6.723831654E0,6.829117533E0
9.420798120E-1,-1.368694544E0,-9.427721500E-1,1.259103298E1,1.270024628E1
9.444554370E-1,2.574677229E0,-7.513462901E-1,8.738588333E0,9.140919545E0
9.468310100E-1,-2.182254314E0,-1.292124242E-1,1.002592659E1,1.026148789E1
9.492066350E-1,2.541177750E0,-1.450050473E0,1.061934662E1,1.101502398E1
9.515822080E-1,-1.507478237E0,1.483550072E-1,7.757531166E0,7.904036288E0
9.539578330E-1,1.244267821E0,-1.569691658E0,1.328973675E1,1.343983769E1
9.563334060E-1,1.579262912E-1,7.657032460E-2,6.283552170E0,6.286002832E0
9.587090310E-1,-1.148554921E0,-9.810572863E-1,1.330887985E1,1.339432472E1
9.610846040E-1,1.880758643E0,-4.689932466E-1,7.432106972E0,7.680717530E0
9.634602290E-1,-1.627119422E0,-5.072783828E-1,1.170090294E1,1.182438068E1
9.658358020E-1,2.598605394E0,-9.523434043E-1,9.432506561E0,9.830151982E0
9.682114270E-1,-2.254039049E0,2.823530734E-1,8.915657043E0,9.200508454E0
9.705870000E-1,2.215753794E0,-1.584048629E0,1.173440266E1,1.204636794E1
9.729626250E-1,-5.647061467E-1,2.392822653E-1,7.030112743E0,7.056814736E0
9.753381980E-1,2.632105052E-1,-1.277767301E0,1.354337597E1,1.360606489E1
9.777138230E-1,1.033699393E0,-5.742774159E-2,6.388836384E0,6.472176042E0
9.800893960E-1,-1.536192179E0,-8.279166222E-1,1.277288723E1,1.289154686E1
9.824650210E-1,2.584248543E0,-6.699903607E-1,8.528019905E0,8.936126181E0
9.848406460E-1,-1.837687731E0,-1.148554832E-1,1.045663452E1,1.061750882E1
9.872162190E-1,2.703889608E0,-1.258624673E0,1.034656525E1,1.076784879E1
9.895917920E-1,-1.727617979E0,3.062812984E-1,7.901100159E0,8.093568795E0
9.919674170E-1,1.674975872E0,-1.660618901E0,1.279681587E1,1.301236703E1
9.943430420E-1,3.876372576E-1,2.009970993E-1,6.446264267E0,6.461035945E0
9.967186140E-1,-6.699903607E-1,-1.105484009E0,1.339980698E1,1.346201356E1
9.990942390E-1,1.899901152E0,-2.392822653E-1,7.087540627E0,7.341669600E0
1.001469812E0,-1.584048629E0,-6.508477330E-1,1.193061352E1,1.205289806E1
1.003845437E0,2.952743053E0,-7.657032609E-1,9.480362892E0,9.959029751E0
1.006221010E0,-2.009970903E0,8.135596663E-2,9.126225471E0,9.345297918E0
1.008596635E0,2.483749866E0,-1.435693622E0,1.137547874E1,1.173165573E1
1.010972208E0,-8.470591903E-1,1.722832322E-1,7.101897717E0,7.154309328E0
1.013347833E0,9.140582681E-1,-1.459621787E0,1.352901936E1,1.363819501E1
1.015723406E0,1.048056364E0,-8.135596663E-2,6.173482418E0,6.262341902E0
1.018099031E0,-1.344766378E0,-8.518448472E-1,1.317966747E1,1.327545370E1
1.020474604E0,2.440679073E0,-5.503492355E-1,7.925028801E0,8.310588434E0
1.022850229E0,-1.746760488E0,-3.302095234E-1,1.101655579E1,1.115906411E1
1.025225802E0,2.857030153E0,-1.148554921E0,1.020299530E1,1.065752846E1
1.027601427E0,-1.952543259E0,2.536391914E-1,8.164310455E0,8.398376226E0
1.029977000E0,1.804188251E0,-1.588834286E0,1.234217930E1,1.257413534E1
1.032352625E0,-5.742774159E-2,1.100698411E-1,6.479763508E0,6.480952741E0
1.034728198E0,-1.627119333E-1,-1.115055323E0,1.365344620E1,1.369986922E1
1.037103823E0,1.560120344E0,-3.254238665E-1,6.546762943E0,6.737950817E0
1.039479396E0,-1.928615093E0,-5.934200287E-1,1.248096275E1,1.264302712E1
1.041855021E0,2.713460922E0,-8.039883971E-1,8.939585686E0,9.376857669E0
1.044230594E0,-2.014756680E0,2.392822690E-2,9.896714211E0,1.009974105E1
1.046606219E0,2.474178553E0,-1.459621787E0,1.103569794E1,1.140345054E1
1.048981792E0,-1.469193101E0,2.823530734E-1,7.269395351E0,7.421749147E0
1.051357417E0,9.379864931E-1,-1.512263894E0,1.316052437E1,1.328029226E1
1.053732989E0,7.082754970E-1,-1.435693540E-2,6.254838467E0,6.294828397E0
1.056108614E0,-1.186840057E0,-9.379864931E-1,1.333759308E1,1.342310684E1
1.058484187E0,2.115255117E0,-3.445664644E-1,7.422535896E0,7.725740702E0
1.060859812E0,-2.139183521E0,-4.259224236E-1,1.148076344E1,1.168612190E1
1.063235385E0,2.890529871E0,-9.858429432E-1,1.006421185E1,1.051738605E1
1.065611010E0,-2.105684042E0,9.092725813E-2,8.528019905E0,8.784605657E0
1.067986583E0,1.976471543E0,-1.450050473E0,1.214118195E1,1.238617718E1
1.070362208E0,-5.790630579E-1,1.866401732E-1,6.522834301E0,6.551146151E0
1.072737833E0,2.249253243E-1,-1.306481123E0,1.362473202E1,1.368907619E1
1.075113406E0,1.521835208E0,-1.627119333E-1,6.417550564E0,6.597530812E0
1.077489031E0,-1.722832322E0,-7.082754970E-1,1.284945774E1,1.298377332E1
1.079864552E0,2.531606436E0,-5.934200287E-1,8.451449394E0,8.842407780E0
1.082240229E0,-1.957328916E0,-1.627119333E-1,1.050449181E1,1.068653170E1
1.084615802E0,2.813959360E0,-1.287338614E0,1.086341476E1,1.129554728E1
1.086991375E0,-1.674975872E0,2.440679073E-1,7.666603565E0,7.851237071E0
1.089367000E0,1.397408366E0,-1.483550072E0,1.282074356E1,1.298172317E1
1.091742625E0,2.823530734E-1,-4.785645381E-2,6.159125328E0,6.165779619E0
1.094118198E0,-4.067798555E-1,-1.038485050E0,1.381137276E1,1.385633207E1
1.096493823E0,2.024327993E0,-4.546363056E-1,6.838686943E0,7.146484248E0
1.098869396E0,-2.139183521E0,-2.967100143E-1,1.219382381E1,1.238359730E1
1.101245021E0,2.852244616E0,-1.033699393E0,9.432506561E0,9.908380988E0
1.103620594E0,-1.933400750E0,-4.785645287E-3,9.403793335E0,9.600489073E0
1.105996219E0,2.359323025E0,-1.574477315E0,1.169611740E1,1.203513798E1
1.108371792E0,-1.100698471E0,1.962114573E-1,6.934400082E0,7.023954766E0
1.110747417E0,6.269195080E-1,-1.411765337E0,1.333759308E1,1.342674564E1
1.113122989E0,1.215553880E0,-3.014956415E-1,6.259624004E0,6.383679467E0
1.115498614E0,-1.253839016E0,-9.140582681E-1,1.328495121E1,1.337525863E1
1.117874187E0,2.526820660E0,-5.742774606E-1,7.877171993E0,8.292433651E0
1.120249812E0,-2.249253273E0,-2.679961324E-1,1.098784161E1,1.121889591E1
1.122625385E0,2.876172781E0,-1.311266780E0,1.059063339E1,1.105229868E1
1.125001010E0,-1.732403636E0,6.221338734E-2,8.202595711E0,8.383774165E0
1.127376583E0,1.718046665E0,-1.564906001E0,1.257188988E1,1.278487506E1
1.129752208E0,-2.009970993E-1,-9.571290575E-3,6.293123722E0,6.296340018E0
1.132127833E0,-1.052841991E-1,-1.287338614E0,1.349073410E1,1.355242532E1
1.134503406E0,1.938186288E0,-4.211367965E-1,6.719046116E0,7.005676484E0
1.136878979E0,-1.914258122E0,-5.886343718E-1,1.252881908E1,1.268787540E1
1.139254604E0,2.684746981E0,-8.231309652E-1,8.767302513E0,9.206030865E0
1.141630229E0,-2.153540373E0,-6.699903309E-2,9.915857315E0,1.014723860E1
1.144005802E0,2.708675146E0,-1.464407444E0,1.152861977E1,1.193274838E1
1.146381427E0,-1.373480201E0,3.828516230E-2,7.097112179E0,7.228894445E0
1.148757000E0,8.949156404E-1,-1.282552958E0,1.308395386E1,1.317708863E1
1.151132625E0,6.125625968E-1,-2.919243574E-1,5.991627693E0,6.029929948E0
1.153508198E0,-6.747759581E-1,-9.810572863E-1,1.350030518E1,1.355271323E1
1.155883823E0,2.349751949E0,-5.694918036E-1,7.269395351E0,7.660924482E0
1.158259396E0,-2.258824587E0,-1.531406492E-1,1.166740322E1,1.188503422E1
1.160635021E0,2.780459881E0,-1.100698471E0,9.877572060E0,1.032031608E1
1.163010594E0,-1.966900229E0,3.828516230E-2,8.886942863E0,9.102083043E0
1.165386167E0,2.115255117E0,-1.531406522E0,1.222732353E1,1.250307766E1
1.167761792E0,-7.657032609E-1,1.196411327E-1,6.532405853E0,6.578217214E0
1.170137417E0,1.531406492E-1,-1.182054400E0,1.326580906E1,1.331924903E1
1.172512989E0,1.450050473E0,-4.163511395E-1,6.288337708E0,6.466775531E0
1.174888614E0,-1.426122308E0,-6.317051649E-1,1.301695538E1,1.311007260E1
1.177264187E0,2.651247501E0,-6.652047038E-1,8.159524918E0,8.605199445E0
1.179639812E0,-2.440679073E0,3.349951655E-2,1.052363396E1,1.080300459E1
1.182015385E0,2.699103832E0,-1.335195065E0,1.086820030E1,1.127766311E1
1.184391010E0,-1.555334687E0,1.770688742E-1,7.867600918E0,8.021817972E0
1.186766583E0,1.416550994E0,-1.426122308E0,1.284467220E1,1.300100171E1
1.189142208E0,-2.392822690E-2,-1.914258115E-2,5.958128452E0,5.958207252E0
1.191517781E0,-4.642075896E-1,-1.000199914E0,1.339502144E1,1.344033065E1
1.193893406E0,2.234896421E0,-4.642075896E-1,6.843472958E0,7.214109288E0
1.196268979E0,-1.995614052E0,-4.402793646E-1,1.230389404E1,1.247245485E1
1.198644604E0,2.766103029E0,-8.566305041E-1,9.107083321E0,9.556364811E0
1.201020229E0,-2.282752752E0,4.785645381E-2,9.475577354E0,9.746784935E0
1.203395802E0,2.579462767E0,-1.536192179E0,1.196411324E1,1.233505250E1
1.205771427E0,-1.057627559E0,2.392822690E-2,6.953542709E0,7.033555632E0
1.208147000E0,5.647061467E-1,-1.191625714E0,1.315095329E1,1.321689969E1
1.210522625E0,8.087740541E-1,-3.014956415E-1,6.125626087E0,6.186138541E0
1.212898198E0,-9.332008362E-1,-9.427721500E-1,1.323230934E1,1.329863503E1
1.215273823E0,2.589034081E0,-6.939185858E-1,7.657032490E0,8.112630093E0
1.217649344E0,-2.287538528E0,-7.657032460E-2,1.140419292E1,1.163160831E1
1.220025021E0,2.684746981E0,-1.258624673E0,1.006421185E1,1.049191891E1
1.222400594E0,-1.895115495E0,9.571290575E-3,8.599804878E0,8.806145484E0
1.224776219E0,1.986042738E0,-1.502692580E0,1.267717457E1,1.291948938E1
1.227151792E0,-4.642075896E-1,-7.657032460E-2,6.345765591E0,6.363182587E0
1.229527417E0,-1.100698411E-1,-1.124626637E0,1.333759308E1,1.338537596E1
1.231902989E0,1.727617979E0,-5.694918036E-1,6.393621922E0,6.647359331E0
1.234278614E0,-1.435693622E0,-6.747759581E-1,1.295952702E1,1.305625824E1
1.236654187E0,2.809173822E0,-8.374879360E-1,8.417949677E0,8.913737732E0
1.239029812E0,-2.407179594E0,1.435693651E-1,1.029870892E1,1.057726482E1
1.241405385E0,2.627319336E0,-1.502692580E0,1.111705399E1,1.152170913E1
1.243781010E0,-1.311266780E0,1.244267747E-1,7.767102242E0,7.877993388E0
1.246156635E0,1.220339537E0,-1.397408366E0,1.306481171E1,1.319588131E1
1.248532156E0,2.105683982E-1,-1.244267747E-1,6.025127411E0,6.030089667E0
1.250907833E0,-6.556333899E-1,-9.714859724E-1,1.326102352E1,1.331271516E1
1.253283406E0,2.455035925E0,-6.221339107E-1,7.111468792E0,7.548989361E0
1.255659031E0,-1.895115495E0,-3.254238665E-1,1.203589821E1,1.218852777E1
1.258034604E0,2.866601467E0,-9.140582681E-1,9.346364975E0,9.818729283E0
1.260410229E0,-2.344966173E0,1.866401732E-1,9.188439369E0,9.484783548E0
1.262785802E0,2.407179594E0,-1.488335729E0,1.222732353E1,1.255058156E1
1.265161427E0,-7.226324677E-1,6.221338734E-2,6.790830612E0,6.829454487E0
1.267537000E0,3.828516304E-1,-1.071984529E0,1.327059460E1,1.331932458E1
1.269912625E0,9.858429432E-1,-2.679961324E-1,6.044270039E0,6.130000696E0
1.272288198E0,-1.105484009E0,-8.087740541E-1,1.295474148E1,1.302695425E1
1.274663823E0,2.790031195E0,-5.599204898E-1,7.920242786E0,8.415939093E0
1.277039396E0,-2.306680918E0,3.349951655E-2,1.096391296E1,1.120398530E1
1.279415021E0,2.689532757E0,-1.177268744E0,1.025085258E1,1.066299802E1
1.281790542E0,-1.823330879E0,1.914258152E-1,8.303094864E0,8.503091418E0
1.284166219E0,1.808973908E0,-1.406979680E0,1.283031464E1,1.303337838E1
1.286541792E0,-3.349951804E-1,4.307080805E-2,6.187839508E0,6.197050479E0
1.288917417E0,-2.727817893E-1,-9.332008362E-1,1.318923855E1,1.322502504E1
1.291293042E0,1.789831281E0,-4.977070987E-1,6.407979012E0,6.671836582E0
1.293668614E0,-1.464407444E0,-4.785645306E-1,1.267238903E1,1.276569453E1
1.296044239E0,2.804388046E0,-8.135597110E-1,8.523234367E0,9.009550255E0
1.298419812E0,-2.517249346E0,3.828516304E-1,9.982855797E0,1.030245260E1
1.300795437E0,2.416750908E0,-1.488335729E0,1.133240795E1,1.168243546E1
1.303171010E0,-1.229910851E0,1.627119333E-1,7.475177765E0,7.577429544E0
1.305546635E0,9.667003751E-1,-1.282552958E0,1.318923855E1,1.328666494E1
1.307922208E0,2.823530734E-1,-9.571290761E-2,5.938985825E0,5.946464230E0
1.310297833E0,-8.805587292E-1,-9.092726111E-1,1.306002617E1,1.312122113E1
1.312673406E0,2.450250387E0,-6.317051649E-1,7.255038261E0,7.683642271E0
1.315049031E0,-1.890329838E0,-1.770688742E-1,1.182532978E1,1.197677439E1
1.317424604E0,2.780459881E0,-1.071984529E0,9.489934921E0,9.946807166E0
1.319800229E0,-2.330609322E0,3.014956415E-1,8.958727837E0,9.261827243E0
1.322175802E0,2.191825628E0,-1.607976794E0,1.238525009E1,1.268006738E1
1.324551375E0,-5.120640397E-1,-4.785645287E-3,6.766902447E0,6.786250895E0
1.326927000E0,2.392822653E-1,-1.167697430E0,1.325145149E1,1.330495171E1
1.329302625E0,1.138983607E0,-3.972085714E-1,6.135197163E0,6.252655638E0
1.331678250E0,-1.234696507E0,-8.279166222E-1,1.272981644E1,1.281632349E1
1.334053823E0,2.880958557E0,-7.465606928E-1,8.207381248E0,8.730313971E0
1.336429448E0,-2.301895380E0,3.349951655E-2,1.066720295E1,1.091279356E1
1.338805021E0,2.617748022E0,-1.368694544E0,1.058106136E1,1.098566289E1
1.341180594E0,-1.751546144E0,1.148554832E-1,8.054241180E0,8.243294649E0
1.343556219E0,1.631905079E0,-1.531406522E0,1.312702465E1,1.331642205E1
1.345931844E0,-1.244267747E-1,-1.292124242E-1,6.173482418E0,6.176088004E0
1.348307417E0,-4.115654826E-1,-9.571290612E-1,1.325145149E1,1.329234550E1
1.350683042E0,1.875972986E0,-6.125625968E-1,6.565905571E0,6.856064727E0
1.353058614E0,-1.488335729E0,-5.216353536E-1,1.245703506E1,1.255647121E1
1.355434239E0,2.924029350E0,-8.853443861E-1,8.796015739E0,9.311480828E0
1.357809812E0,-2.455035925E0,3.206382394E-1,9.834501266E0,1.014137197E1
1.360185437E0,2.373680115E0,-1.483550072E0,1.155254745E1,1.188682593E1
1.362561010E0,-1.095912814E0,4.785645287E-3,7.412964344E0,7.493536426E0
1.364936635E0,9.284151793E-1,-1.220339537E0,1.333280754E1,1.342069075E1
1.367312208E0,4.594219327E-1,-2.392822653E-1,6.015556335E0,6.037817697E0
1.369687833E0,-1.043270707E0,-8.231309652E-1,1.291645622E1,1.298463706E1
1.372063406E0,2.474178553E0,-6.460621357E-1,7.360322475E0,7.791874148E0
1.374439031E0,-1.808973908E0,-6.221338734E-2,1.174397373E1,1.188264180E1
1.376814604E0,2.684746981E0,-1.095912814E0,9.528220177E0,9.959712395E0
1.379190229E0,-2.340180635E0,3.972085714E-1,8.848658562E0,9.161494332E0
1.381565854E0,1.962114573E0,-1.584048629E0,1.243789196E1,1.269095190E1
1.383941427E0,-4.689932466E-1,7.178468257E-2,6.891329288E0,6.907642656E0
1.386317052E0,1.627119333E-1,-1.071984529E0,1.317009544E1,1.321465247E1
1.388692625E0,1.162911773E0,-3.110669553E-1,6.245266914E0,6.360226826E0
1.391068250E0,-1.292124271E0,-6.556333899E-1,1.259103298E1,1.267412923E1
1.393443823E0,3.010170937E0,-7.369893789E-1,8.303094864E0,8.862599321E0
1.395819448E0,-2.143969059E0,1.627119333E-1,1.056191921E1,1.077855352E1
1.398195021E0,2.651247501E0,-1.263410330E0,1.065763187E1,1.105488291E1
1.400570646E0,-1.737189293E0,2.584248483E-1,7.996813297E0,8.187406974E0
1.402946167E0,1.579262972E0,-1.454836130E0,1.327059460E1,1.344318789E1
1.405321844E0,9.092725813E-2,-7.657032460E-2,6.178267956E0,6.179411438E0
1.407697417E0,-5.312066078E-1,-8.279166222E-1,1.313659668E1,1.317337461E1
1.410073042E0,1.933400750E0,-5.647061467E-1,6.652047157E0,6.950299481E0
1.412448667E0,-1.488335729E0,-5.216353536E-1,1.224168110E1,1.234285230E1
1.414824239E0,3.024527788E0,-8.949156404E-1,9.078369141E0,9.610693450E0
1.417199864E0,-2.297109842E0,2.727817893E-1,9.623932838E0,9.898040554E0
1.419575437E0,2.359323025E0,-1.493121386E0,1.170568848E1,1.203407493E1
1.421951062E0,-9.810572863E-1,2.392822690E-2,7.365108013E0,7.430199325E0
1.424326635E0,9.044869542E-1,-1.272981644E0,1.351944828E1,1.360933726E1
1.426702260E0,6.652047038E-1,-3.732803464E-1,6.092126369E0,6.139693740E0
1.429077833E0,-9.954141974E-1,-8.614161611E-1,1.290688515E1,1.297384181E1
1.431453458E0,2.560320139E0,-8.183453679E-1,7.470392227E0,7.939249863E0
1.433829031E0,-1.703689694E0,-2.009970993E-1,1.171047401E1,1.183546197E1
1.436204656E0,2.861815929E0,-1.339980721E0,9.719645500E0,1.022042305E1
1.438580281E0,-2.277967215E0,3.589234054E-1,8.863015175E0,9.158111084E0
1.440955854E0,1.875972986E0,-1.780260086E0,1.261974621E1,1.288202604E1
1.443331427E0,-2.584248483E-1,-1.148554832E-1,6.867401123E0,6.873221470E0
1.445707052E0,5.742774159E-2,-1.253839016E0,1.335195065E1,1.341081639E1
1.448082677E0,1.249053478E0,-4.689932466E-1,6.336194515E0,6.475140940E0
1.450458250E0,-1.421336651E0,-7.609176040E-1,1.250489140E1,1.260839015E1
1.452833875E0,2.909672260E0,-9.523434043E-1,8.336593628E0,8.880987779E0
1.455209448E0,-2.148754835E0,5.742774159E-2,1.062413216E1,1.083940171E1
1.457585073E0,2.608176708E0,-1.507478237E0,1.077248764E1,1.118577518E1
1.459960646E0,-1.914258122E0,1.866401732E-1,7.939385414E0,8.169030510E0
1.462336271E0,1.263410330E0,-1.612762451E0,1.331366539E1,1.347037099E1
1.464711844E0,6.221338734E-2,-1.818545163E-1,6.393621922E0,6.396510208E0
1.467087469E0,-6.317051649E-1,-9.858429432E-1,1.311266804E1,1.316483957E1
1.469463042E0,1.823330879E0,-6.173482537E-1,6.771687984E0,7.039986685E0
1.471838667E0,-1.718046665E0,-5.168496966E-1,1.210768223E1,1.223988508E1
1.474214239E0,2.909672260E0,-9.619147182E-1,9.174081802E0,9.672396265E0
1.476589864E0,-2.388036966E0,2.201396823E-1,9.580862045E0,9.876441645E0
1.478965489E0,2.172683001E0,-1.531406522E0,1.176790142E1,1.206437985E1
1.481341062E0,-1.172483087E0,6.699903309E-2,7.336394310E0,7.429797233E0
1.483716687E0,7.752745152E-1,-1.263410330E0,1.349551964E1,1.357668246E1
1.486092260E0,5.886343718E-1,-3.397808075E-1,6.120840549E0,6.158460072E0
1.488467885E0,-1.095912814E0,-7.130611539E-1,1.280160141E1,1.286819645E1
1.490843458E0,2.512463808E0,-7.226324677E-1,7.446464062E0,7.892052907E0
1.493219083E0,-1.727617979E0,-1.579262912E-1,1.148554897E1,1.161582713E1
1.495594656E0,2.928814888E0,-1.239482164E0,9.753145218E0,1.025856298E1
1.497970281E0,-2.167897224E0,4.402793646E-1,8.752944946E0,9.028159808E0
1.500345854E0,1.852044702E0,-1.588834286E0,1.255274773E1,1.278772612E1
1.502721479E0,-2.249253243E-1,-1.914258115E-2,6.857829571E0,6.861543869E0
1.505097104E0,2.392822653E-1,-1.115055323E0,1.334716511E1,1.339579862E1
1.507472677E0,1.349551916E0,-3.972085714E-1,6.340980053E0,6.495159202E0
1.509848302E0,-1.263410330E0,-6.460621357E-1,1.232782269E1,1.240922295E1
1.512223875E0,2.952743053E0,-9.044869542E-1,8.231309891E0,8.791544273E0
1.514599500E0,-1.804188251E0,1.674975902E-1,1.068156052E1,1.083415367E1
1.516975073E0,2.804388046E0,-1.493121386E0,1.065284634E1,1.111652548E1
1.519350698E0,-1.756331801E0,3.924229145E-1,7.901100159E0,8.103461042E0
1.521726271E0,1.411765337E0,-1.545763373E0,1.315095329E1,1.331653252E1
1.524101896E0,3.732803464E-1,-9.092725813E-2,6.494120598E0,6.505475257E0
1.526477469E0,-3.684946895E-1,-9.427721500E-1,1.293559933E1,1.297514307E1
1.528853094E0,2.029113531E0,-5.359922647E-1,6.838686943E0,7.153476675E0
1.531228667E0,-1.521835208E0,-4.546363056E-1,1.180618668E1,1.191254467E1
1.533604292E0,3.129812002E0,-1.009771109E0,9.265008926E0,9.831365687E0
1.535979864E0,-2.234896421E0,2.823530734E-1,9.499505997E0,9.762945224E0
1.538355489E0,2.215753794E0,-1.507478237E0,1.182054424E1,1.212053306E1
1.540731114E0,-1.115055323E0,1.387837082E-1,7.216753006E0,7.303706815E0
1.543106687E0,7.322037220E-1,-1.397408366E0,1.354816151E1,1.363970501E1
1.545482312E0,6.269195080E-1,-3.445664644E-1,6.245266914E0,6.286104752E0
1.547857885E0,-1.234696507E0,-7.800601721E-1,1.269631672E1,1.278004020E1
1.550233510E0,2.282752752E0,-7.417750359E-1,7.570890903E0,7.942265382E0
1.552609083E0,-1.866401672E0,-2.392822653E-1,1.138504982E1,1.153950045E1
1.554984708E0,2.790031195E0,-1.287338614E0,9.963713646E0,1.042674946E1
1.557360281E0,-2.411965132E0,3.541377485E-1,8.762516975E0,9.095311599E0
1.559735906E0,1.564906001E0,-1.607976794E0,1.255753326E1,1.275641650E1
1.562111479E0,-5.742774606E-1,-4.785645381E-2,6.891329288E0,6.915381711E0
1.564487104E0,1.914258115E-2,-1.110269666E0,1.342373466E1,1.346958491E1
1.566862729E0,1.004985452E0,-5.072783828E-1,6.360122681E0,6.458985031E0
1.569238302E0,-1.627119422E0,-6.508477330E-1,1.243789196E1,1.256074348E1
1.571613875E0,2.603390932E0,-9.236295223E-1,8.231309891E0,8.682464993E0
1.573989500E0,-2.105684042E0,1.339980662E-1,1.069591713E1,1.090204128E1
1.576365125E0,2.517249346E0,-1.540977836E0,1.063370419E1,1.103570667E1
1.578740698E0,-2.000399828E0,4.402793646E-1,7.992027760E0,8.250330484E0
1.581116323E0,1.095912814E0,-1.545763373E0,1.313659668E1,1.327254993E1
1.583491896E0,1.866401732E-1,-9.092725813E-2,6.585047722E0,6.588319651E0
1.585867521E0,-5.264210105E-1,-9.810572863E-1,1.306002617E1,1.310739776E1
1.588243094E0,1.698904037E0,-4.785645306E-1,6.872186661E0,7.095227159E0
1.590618719E0,-1.651047587E0,-3.876372576E-1,1.193539906E1,1.205528811E1
1.592994292E0,3.024527788E0,-1.019342422E0,9.044869423E0,9.591480084E0
1.595369917E0,-2.115255117E0,3.780659735E-1,9.719645500E0,9.954333064E0
1.597745542E0,2.431107759E0,-1.502692580E0,1.163390350E1,1.197981973E1
1.600121114E0,-1.191625714E0,2.919243574E-1,7.235895634E0,7.339167343E0
1.602496739E0,8.614161611E-1,-1.263410330E0,1.348116302E1,1.356760848E1
1.604872312E0,8.039883971E-1,-2.249253243E-1,6.264409542E0,6.319795539E0
1.607247937E0,-8.135597110E-1,-6.604190469E-1,1.264367485E1,1.268702276E1
1.609623510E0,2.474178553E0,-5.790630579E-1,7.350750923E0,7.777558272E0
1.611999135E0,-1.531406522E0,-2.009970993E-1,1.132762241E1,1.143243786E1
1.614374708E0,3.215953588E0,-1.100698471E0,9.834501266E0,1.040535006E1
1.616750333E0,-2.043470621E0,3.924229145E-1,8.757730484E0,9.001533822E0
1.619125906E0,2.014756680E0,-1.493121386E0,1.252881908E1,1.277732224E1
1.621501479E0,-3.254238665E-1,3.349951655E-2,6.800402164E0,6.808266483E0
1.623877156E0,5.072783828E-1,-1.148554921E0,1.362951756E1,1.368722976E1
1.626252729E0,1.287338614E0,-4.929214716E-1,6.336194515E0,6.484410013E0
1.628628354E0,-1.272981644E0,-6.269195080E-1,1.241874981E1,1.249955428E1
1.631003927E0,2.837887764E0,-8.805587292E-1,8.130811691E0,8.656736648E0
1.633379552E0,-1.727617979E0,-1.914258115E-2,1.078684425E1,1.092433244E1
1.635755125E0,2.861815929E0,-1.478764415E0,1.047577763E1,1.095986549E1
1.638130750E0,-1.952543259E0,3.828516304E-1,8.145168304E0,8.384674547E0
1.640506323E0,1.339980721E0,-1.593619823E0,1.304566860E1,1.321077748E1
1.642881948E0,1.435693651E-1,-1.722832322E-1,6.652047157E0,6.655826399E0
1.645257469E0,-2.823530734E-1,-1.067198873E0,1.323709488E1,1.328304624E1
1.647633146E0,1.646261930E0,-5.790630579E-1,6.766902447E0,6.988308886E0
1.650008771E0,-1.698904037E0,-5.886343718E-1,1.191147137E1,1.204640675E1
1.652384344E0,2.914458036E0,-1.100698471E0,8.906085968E0,9.435251456E0
1.654759969E0,-2.081755638E0,2.297109663E-1,9.968499184E0,1.018614008E1
1.657135542E0,2.335394859E0,-1.665404558E0,1.135155106E1,1.170834544E1
1.659511167E0,-1.521835208E0,2.584248483E-1,7.484749317E0,7.642266558E0
1.661886739E0,7.609176040E-1,-1.473978758E0,1.339023590E1,1.349259154E1
1.664262364E0,4.737788737E-1,-2.392822653E-1,6.489335060E0,6.511005448E0
1.666637937E0,-9.714859724E-1,-9.092726111E-1,1.279681587E1,1.286580966E1
1.669013562E0,2.014756680E0,-6.795616150E-1,7.231110096E0,7.537240986E0
1.671389135E0,-1.895115495E0,-3.302095234E-1,1.143769264E1,1.159833238E1
1.673764760E0,2.880958557E0,-1.134197950E0,9.695717812E0,1.017807797E1
1.676140385E0,-2.373680115E0,3.493520916E-1,8.920442581E0,9.237461773E0
1.678515958E0,1.832902193E0,-1.521835208E0,1.230867958E1,1.253710915E1
1.680891583E0,-8.949156404E-1,1.292124242E-1,6.910471916E0,6.969375292E0
1.683267156E0,3.062812984E-1,-1.196411371E0,1.352901936E1,1.358527045E1
1.685642781E0,8.566305041E-1,-3.445664644E-1,6.273981094E0,6.341559796E0
1.688018354E0,-1.473978758E0,-5.838487148E-1,1.255274773E1,1.265246886E1
1.690393979E0,2.455035925E0,-6.987041831E-1,7.843672752E0,8.248550853E0
1.692769552E0,-1.923829436E0,-1.435693540E-2,1.096869946E1,1.113614357E1
1.695145177E0,2.804388046E0,-1.296909928E0,1.031785107E1,1.077054401E1
1.697520802E0,-2.153540373E0,4.354937077E-1,8.226524353E0,8.514874857E0
1.699896375E0,1.359123230E0,-1.459621787E0,1.289252853E1,1.304588072E1
1.702272000E0,-1.627119333E-1,-3.828516230E-2,6.585047722E0,6.587168923E0
1.704647573E0,-1.196411327E-1,-9.667003751E-1,1.341416359E1,1.344948357E1
1.707023198E0,1.421336651E0,-4.354937077E-1,6.470192432E0,6.638768166E0
1.709398771E0,-1.588834286E0,-4.402793646E-1,1.216989613E1,1.228106722E1
1.711774396E0,2.866601467E0,-8.614161611E-1,8.537590981E0,9.047093540E0
1.714149969E0,-1.914258122E0,3.062812984E-1,1.027478027E1,1.045606532E1
1.716525594E0,2.512463808E0,-1.502692580E0,1.099741268E1,1.138040619E1
1.718901167E0,-1.636690736E0,5.024927258E-1,7.666603565E0,7.855448156E0
1.721276792E0,1.009771109E0,-1.488335729E0,1.328973675E1,1.341088676E1
1.723652312E0,4.450650215E-1,-7.657032460E-2,6.489335060E0,6.505030008E0
1.726027989E0,-6.269195080E-1,-8.949156404E-1,1.289252853E1,1.293874778E1
1.728403614E0,2.024327993E0,-5.168496966E-1,7.101897717E0,7.402836525E0
1.730779187E0,-1.651047587E0,-3.254238665E-1,1.156690502E1,1.168867617E1
1.733154812E0,3.077169895E0,-1.105484009E0,9.432506561E0,9.983148275E0
1.735530385E0,-2.076970100E0,2.967100143E-1,9.265008926E0,9.499591151E0
1.737906010E0,2.191825628E0,-1.521835208E0,1.196889877E1,1.226273297E1
1.740281583E0,-9.858429432E-1,2.105683982E-1,7.101897717E0,7.173086960E0
1.742657208E0,6.317051649E-1,-1.301695466E0,1.351944828E1,1.359665195E1
1.745032781E0,9.188438654E-1,-3.062812984E-1,6.407979012E0,6.480762092E0
1.747408406E0,-1.091127157E0,-7.465606928E-1,1.261496067E1,1.268405077E1
1.749784031E0,2.421536446E0,-6.987041831E-1,7.642675400E0,8.047515987E0
1.752159604E0,-1.746760488E0,-1.483550072E-1,1.117448139E1,1.131115449E1
1.754535229E0,3.000599623E0,-1.282552958E0,1.003549862E1,1.055271400E1
1.756910802E0,-2.124826431E0,4.354937077E-1,8.537590981E0,8.808802523E0
1.759286427E0,1.674975872E0,-1.579262972E0,1.262931824E1,1.283741776E1
1.761662000E0,-3.110669553E-1,4.785645381E-2,6.728617191E0,6.735973738E0
1.764037625E0,1.387837082E-1,-1.076770186E0,1.340459251E1,1.344848673E1
1.766413198E0,1.225125194E0,-4.689932466E-1,6.422336102E0,6.554943738E0
1.768788823E0,-1.473978758E0,-5.216353536E-1,1.224168110E1,1.234112932E1
1.771164448E0,2.742174864E0,-8.183453679E-1,8.240880966E0,8.723607695E0
1.773540021E0,-1.856830359E0,1.435693651E-1,1.057627583E1,1.073899630E1
1.775915646E0,2.684746981E0,-1.440479279E0,1.062413216E1,1.105237671E1
1.778291219E0,-1.914258122E0,5.312066078E-1,7.867600918E0,8.114536883E0
1.780666792E0,1.153340459E0,-1.464407444E0,1.317488194E1,1.330609625E1
1.783042417E0,2.249253243E-1,-4.307080805E-2,6.474977970E0,6.479026641E0
1.785418042E0,-4.881358147E-1,-8.374879360E-1,1.310309696E1,1.313890454E1
1.787793614E0,1.665404558E0,-4.259224236E-1,6.762116909E0,6.977191938E0
1.790169239E0,-1.674975872E0,-3.110669553E-1,1.182532978E1,1.194741525E1
1.792544864E0,2.866601467E0,-9.427721500E-1,8.958727837E0,9.453307768E0
1.794920437E0,-2.124826431E0,4.163511395E-1,9.801001549E0,1.003732370E1
1.797296062E0,2.244467735E0,-1.469193101E0,1.143290615E1,1.174340269E1
1.799671635E0,-1.426122308E0,3.684946895E-1,7.336394310E0,7.482799920E0
1.802047260E0,6.891329288E-1,-1.354337573E0,1.341416359E1,1.349995997E1
1.804422833E0,5.359922647E-1,-1.100698411E-1,6.345765591E0,6.369312680E0
1.806798458E0,-1.052842021E0,-7.752745152E-1,1.276331615E1,1.283011170E1
1.809174031E0,2.120040894E0,-6.364908218E-1,7.216753006E0,7.548590458E0
1.811549656E0,-1.909472466E0,-1.770688742E-1,1.136590767E1,1.152654743E1
1.813925281E0,2.928814888E0,-1.134197950E0,9.762716293E0,1.025548590E1
1.816300854E0,-2.273181438E0,3.972085714E-1,8.796015739E0,9.093680300E0
1.818676479E0,1.804188251E0,-1.473978758E0,1.231825066E1,1.253662665E1
1.821052052E0,-7.704889178E-1,9.092725813E-2,6.833901405E0,6.877799747E0
1.823427625E0,3.637090325E-1,-1.167697430E0,1.354337597E1,1.359848647E1
1.825803250E0,9.475577474E-1,-4.211367965E-1,6.245266914E0,6.330764623E0
1.828178875E0,-1.378265858E0,-5.838487148E-1,1.256710434E1,1.265593172E1
1.830554448E0,2.584248543E0,-7.944171429E-1,7.891529083E0,8.341802587E0
1.832930073E0,-1.832902193E0,-4.785645381E-2,1.095434189E1,1.110672890E1
1.835305646E0,2.842673302E0,-1.402194023E0,1.035135078E1,1.082577492E1
1.837681271E0,-2.053041935E0,3.780659735E-1,8.197810173E0,8.459433001E0
1.840056896E0,1.464407444E0,-1.550549030E0,1.295474148E1,1.312912862E1
1.842432469E0,1.435693540E-2,-1.292124242E-1,6.661618233E0,6.662886721E0
1.844808094E0,-7.657032460E-2,-1.100698471E0,1.333280754E1,1.337838395E1
1.847183667E0,1.507478237E0,-5.503492355E-1,6.675975323E0,6.866150408E0
1.849559292E0,-1.478764415E0,-6.125625968E-1,1.211246777E1,1.221776790E1
1.851934864E0,2.928814888E0,-1.081555843E0,8.628518105E0,9.176003726E0
1.854310489E0,-1.909472466E0,1.674975902E-1,1.030827999E1,1.048497863E1
1.856686114E0,2.560320139E0,-1.708475351E0,1.110748291E1,1.152607062E1
1.859061687E0,-1.588834286E0,2.775674164E-1,7.714460373E0,7.881264930E0
1.861437312E0,1.019342422E0,-1.588834286E0,1.343330669E1,1.356529329E1
1.863812885E0,4.115654826E-1,-1.962114573E-1,6.518048763E0,6.533976183E0
1.866188458E0,-5.934200287E-1,-1.024128079E0,1.301216984E1,1.306589260E1
1.868564083E0,1.952543259E0,-6.747759581E-1,7.082755089E0,7.377883668E0
1.870939708E0,-1.674975872E0,-4.307080805E-1,1.179661560E1,1.192271753E1
1.873315333E0,3.053241730E0,-1.239482164E0,9.403793335E0,9.964433259E0
1.875690906E0,-2.182254314E0,2.344966233E-1,9.389435768E0,9.642547724E0
1.878066531E0,2.143969059E0,-1.584048629E0,1.202154064E1,1.231353941E1
1.880442104E0,-1.043270707E0,6.221338734E-2,7.202396393E0,7.277829214E0
1.882817729E0,6.747759581E-1,-1.320838094E0,1.364866066E1,1.372901576E1
1.885193302E0,7.657032609E-1,-3.684946895E-1,6.312266350E0,6.369206881E0
1.887568927E0,-1.071984529E0,-7.561319470E-1,1.275853062E1,1.282579393E1
1.889944500E0,2.373680115E0,-7.465606928E-1,7.499105930E0,7.901158137E0
1.892320125E0,-1.751546144E0,-1.962114573E-1,1.132762241E1,1.146391915E1
1.894695750E0,2.933600664E0,-1.225125194E0,9.954142570E0,1.044949276E1
1.897071323E0,-2.187039852E0,3.780659735E-1,8.652446747E0,8.932575883E0
1.899446948E0,1.756331801E0,-1.536192179E0,1.261496067E1,1.282894464E1
1.901822521E0,-4.354937077E-1,4.785645381E-2,6.733402729E0,6.747640871E0
1.904198146E0,3.014956415E-1,-1.081555843E0,1.349073410E1,1.353737675E1
1.906573719E0,1.162911773E0,-4.354937077E-1,6.302694798E0,6.423860231E0
1.908949344E0,-1.373480201E0,-5.503492355E-1,1.232782269E1,1.241630155E1
1.911324917E0,2.828316450E0,-8.087740541E-1,8.178668022E0,8.691610900E0
1.913700542E0,-1.718046665E0,1.052841991E-1,1.078684425E1,1.092331351E1
1.916076167E0,2.766103029E0,-1.421336651E0,1.046142101E1,1.091388352E1
1.918451739E0,-1.928615093E0,4.881358147E-1,8.116454124E0,8.356713487E0
1.920827364E0,1.493121386E0,-1.584048629E0,1.311745358E1,1.329684962E1
1.923202937E0,1.914258152E-1,-4.307080805E-2,6.522834301E0,6.525784723E0
1.925578562E0,-2.344966233E-1,-1.004985452E0,1.319402409E1,1.323432114E1
1.927954135E0,1.737189293E0,-5.216353536E-1,6.608976364E0,6.853356744E0
1.930329760E0,-1.464407444E0,-4.833501875E-1,1.209332561E1,1.219125264E1
1.932705333E0,3.024527788E0,-1.052842021E0,8.762516975E0,9.329413079E0
1.935080958E0,-1.990828395E0,2.201396823E-1,1.003549862E1,1.023343010E1
1.937456583E0,2.541177750E0,-1.603191137E0,1.129412270E1,1.168695913E1
1.939832156E0,-1.507478237E0,2.584248483E-1,7.465606689E0,7.620666459E0
1.942207781E0,1.071984529E0,-1.560120344E0,1.352423382E1,1.365606190E1
1.944583354E0,5.264210105E-1,-2.584248483E-1,6.245266914E0,6.272739538E0
1.946958979E0,-7.274180651E-1,-9.092726111E-1,1.298345566E1,1.303556806E1
1.949334552E0,2.153540373E0,-7.082754970E-1,7.077969551E0,7.432162759E0
1.951710177E0,-1.670190215E0,-4.642075896E-1,1.171525955E1,1.184281767E1
1.954085802E0,3.024527788E0,-1.148554921E0,9.513862610E0,1.004890683E1
1.956461375E0,-2.292324066E0,2.392822653E-1,9.140582085E0,9.426677382E0
1.958837000E0,2.067398787E0,-1.627119422E0,1.211246777E1,1.239489938E1
1.961212573E0,-8.614161611E-1,-3.349951655E-2,7.039684296E0,7.092271498E0
1.963588198E0,6.269195080E-1,-1.282552958E0,1.359601784E1,1.367075972E1
1.965963719E0,7.274180651E-1,-4.402793646E-1,6.130411625E0,6.189097644E0
1.968339396E0,-1.162911773E0,-7.369893789E-1,1.269631672E1,1.277074686E1
1.970714969E0,2.488535643E0,-7.944171429E-1,7.618747234E0,8.054142888E0
1.973090594E0,-1.789831281E0,-1.818545163E-1,1.132762241E1,1.146959444E1
1.975466219E0,2.847458839E0,-1.359123230E0,9.944570541E0,1.043310697E1
1.977841792E0,-2.287538528E0,4.450650215E-1,8.580661774E0,8.891494355E0
1.980217417E0,1.651047587E0,-1.579262972E0,1.267717457E1,1.288141237E1
1.982592989E0,-3.397808075E-1,-1.435693540E-2,6.766902447E0,6.775442852E0
1.984968614E0,8.135596663E-2,-1.067198873E0,1.339502144E1,1.343771303E1
1.987344187E0,1.143769264E0,-3.780659735E-1,6.312266350E0,6.426184597E0
1.989719812E0,-1.464407444E0,-5.742774606E-1,1.237567902E1,1.247524408E1
1.992095437E0,2.799602509E0,-8.470591903E-1,8.288737297E0,8.789678575E0
1.994471010E0,-1.962114573E0,1.914258152E-1,1.064806080E1,1.082902286E1
1.996846635E0,2.660818815E0,-1.397408366E0,1.062891865E1,1.104566062E1
1.999222208E0,-1.847259045E0,4.594219327E-1,7.953742504E0,8.178352787E0
2.001597833E0,1.383051515E0,-1.564906001E0,1.321316624E1,1.337720166E1
2.003973406E0,1.674975902E-1,4.307080805E-2,6.460621357E0,6.462935777E0
2.006349031E0,-4.163511395E-1,-9.044869542E-1,1.317009544E1,1.320768181E1
2.008724656E0,1.842473388E0,-5.359922647E-1,6.695117950E0,6.964667994E0
2.011100229E0,-1.517049551E0,-4.259224236E-1,1.207418346E1,1.217656584E1
2.013475854E0,3.072384357E0,-9.762716293E-1,9.016156197E0,9.575161852E0
2.015851427E0,-2.201396942E0,3.254238665E-1,9.705288887E0,9.957142239E0
2.018227052E0,2.364108801E0,-1.469193101E0,1.151426220E1,1.184591798E1
2.020602625E0,-1.311266780E0,1.722832322E-1,7.360322475E0,7.478198247E0
2.022978250E0,1.033699393E0,-1.296909928E0,1.348594856E1,1.358754277E1
2.025353875E0,4.929214716E-1,-1.962114573E-1,6.154339790E0,6.177165108E0
2.027729448E0,-9.140582681E-1,-7.704889178E-1,1.290209961E1,1.295736586E1
2.030105073E0,2.263610125E0,-6.317051649E-1,7.207181931E0,7.580663137E0
2.032480646E0,-1.665404558E0,-3.445664644E-1,1.163868904E1,1.176228638E1
2.034856271E0,2.900100946E0,-1.071984529E0,9.600004196E0,1.008562427E1
2.037231844E0,-2.316252232E0,3.876372576E-1,8.992227554E0,9.293839004E0
2.039607469E0,1.962114573E0,-1.521835208E0,1.222732353E1,1.247691135E1
2.041983094E0,-7.752745152E-1,4.307080805E-2,6.953542709E0,6.996760813E0
2.044358667E0,4.354937077E-1,-1.138983607E0,1.353859043E1,1.359339433E1
2.046734292E0,7.800601721E-1,-3.445664644E-1,6.092126369E0,6.151522057E0
2.049109864E0,-1.359123230E0,-6.747759581E-1,1.262931824E1,1.272015007E1
2.051485489E0,2.565105915E0,-7.609176040E-1,7.805387497E0,8.251232510E0
2.053861062E0,-1.928615093E0,4.785645381E-2,1.120319557E1,1.136808856E1
2.056236687E0,2.636890650E0,-1.272981644E0,1.010249710E1,1.051827563E1
2.058612260E0,-2.297109842E0,4.977070987E-1,8.413164139E0,8.735316641E0
2.060987885E0,1.574477315E0,-1.631905079E0,1.283988667E1,1.303858821E1
2.063363510E0,-2.871387303E-1,4.307080805E-2,6.699903488E0,6.706191952E0
2.065739083E0,-2.105683982E-1,-9.810572863E-1,1.332802200E1,1.336573915E1
2.068114708E0,1.234696507E0,-4.307080805E-1,6.403193474E0,6.535355505E0
2.070490281E0,-1.579262972E0,-5.120640397E-1,1.242353535E1,1.253397430E1
2.072865906E0,2.833101988E0,-8.470591903E-1,8.551948547E0,9.048745775E0
2.075241479E0,-2.172683001E0,1.914258152E-1,1.029392338E1,1.052245474E1
2.077617104E0,2.464607239E0,-1.363908887E0,1.098305607E1,1.133852093E1
2.079992729E0,-1.785045743E0,2.919243574E-1,7.791030407E0,7.998234989E0
2.082368302E0,1.258624673E0,-1.440479279E0,1.335673618E1,1.349301738E1
2.084743927E0,1.579262912E-1,-1.483550072E-1,6.326622963E0,6.330332380E0
2.087119500E0,-5.264210105E-1,-8.279166222E-1,1.306959724E1,1.310637010E1
2.089495125E0,1.861616015E0,-5.742774606E-1,6.752545357E0,7.027963972E0
2.091870698E0,-1.550549030E0,-4.354937077E-1,1.214118195E1,1.224753674E1
2.094246323E0,3.067598581E0,-9.379864931E-1,9.140582085E0,9.687116215E0
2.096621948E0,-2.321038008E0,2.871387303E-1,9.614361763E0,9.894726787E0
2.098997521E0,2.335394859E0,-1.512263894E0,1.174397373E1,1.206904844E1
2.101373146E0,-1.105484009E0,1.004985496E-1,7.207181931E0,7.292164715E0
2.103748719E0,9.379864931E-1,-1.287338614E0,1.362473202E1,1.371752098E1
2.106124344E0,5.742774606E-1,-3.493520916E-1,6.029912949E0,6.067263935E0
2.108499969E0,-9.427721500E-1,-7.178468108E-1,1.288774300E1,1.294210350E1
2.110875542E0,2.459821701E0,-7.226324677E-1,7.322037220E0,7.757908838E0
2.113251167E0,-1.612762451E0,-2.249253243E-1,1.170568848E1,1.181840670E1
2.115626687E0,3.005385160E0,-1.229910851E0,9.705288887E0,1.023414154E1
2.118002364E0,-2.292324066E0,4.163511395E-1,8.858229637E0,9.159493993E0
2.120377937E0,1.952543259E0,-1.617548108E0,1.250967693E1,1.276404732E1
2.122753562E0,-4.402793646E-1,-1.435693540E-2,6.862615108E0,6.876738920E0
2.125129187E0,3.541377485E-1,-1.172483087E0,1.344766331E1,1.350332472E1
2.127504760E0,9.714859724E-1,-3.876372576E-1,6.144768715E0,6.233155717E0
2.129880385E0,-1.272981644E0,-7.130611539E-1,1.257188988E1,1.265627724E1
2.132255958E0,2.751745939E0,-8.662018180E-1,8.063812256E0,8.564314298E0
2.134631583E0,-1.962114573E0,4.307080805E-2,1.099262714E1,1.116644976E1
2.137007156E0,2.670390129E0,-1.354337573E0,1.033220863E1,1.075731142E1
2.139382781E0,-2.120040894E0,3.110669553E-1,8.135597229E0,8.413042156E0
2.141758354E0,1.536192179E0,-1.598405480E0,1.306959724E1,1.325628751E1
2.144133979E0,-5.742774159E-2,-9.571290761E-2,6.474977970E0,6.475939980E0
2.146509604E0,-2.823530734E-1,-1.024128079E0,1.324188042E1,1.328442541E1
2.148885177E0,1.517049551E0,-5.024927258E-1,6.431907177E0,6.627470725E0
2.151260802E0,-1.579262972E0,-5.838487148E-1,1.227039433E1,1.238537556E1
2.153636375E0,2.957528830E0,-8.997012973E-1,8.839086533E0,9.364074430E0
2.156012000E0,-2.359323025E0,1.914258152E-1,9.915857315E0,1.019447278E1
2.158387625E0,2.335394859E0,-1.469193101E0,1.131326580E1,1.164485211E1
2.160763198E0,-1.569691658E0,1.722832322E-1,7.465606689E0,7.630786110E0
2.163138823E0,1.143769264E0,-1.426122308E0,1.350030518E1,1.362351911E1
2.165514396E0,1.722832322E-1,-2.536391914E-1,5.982056618E0,5.989909493E0
2.167890021E0,-8.853443861E-1,-8.039883971E-1,1.306481171E1,1.311943356E1
2.170265542E0,2.019542217E0,-6.556333899E-1,6.905686378E0,7.224742920E0
2.172641219E0,-1.622333765E0,-4.211367965E-1,1.201196957E1,1.212834432E1
2.175016844E0,2.880958557E0,-1.067198873E0,9.236295700E0,9.733858120E0
2.177392417E0,-2.464607239E0,3.493520916E-1,9.284152031E0,9.612066097E0
2.179768042E0,2.143969059E0,-1.612762451E0,1.197368431E1,1.227056323E1
2.182143614E0,-8.662018180E-1,0.000000000E0,7.097112179E0,7.149776701E0
2.184519239E0,6.699903607E-1,-1.249053478E0,1.353380489E1,1.360782483E1
2.186894864E0,6.699903607E-1,-3.493520916E-1,6.020341873E0,6.067573670E0
2.189270437E0,-1.129412293E0,-7.561319470E-1,1.273938751E1,1.281168614E1
2.191646062E0,2.627319336E0,-8.087740541E-1,7.652246952E0,8.131039649E0
2.194021635E0,-1.765903115E0,-1.100698411E-1,1.139940739E1,1.153590126E1
2.196397260E0,2.804388046E0,-1.272981644E0,9.877572060E0,1.034656969E1
2.198772833E0,-2.210968018E0,3.780659735E-1,8.604590416E0,8.892147642E0
2.201148458E0,1.919043779E0,-1.703689694E0,1.266281700E1,1.292022531E1
2.203524031E0,-2.440679073E-1,2.871387079E-2,6.723831654E0,6.728321168E0
2.205899656E0,2.105683982E-1,-1.158126116E0,1.335673618E1,1.340850464E1
2.208275281E0,1.344766378E0,-4.498506486E-1,6.254838467E0,6.413561137E0
2.210650854E0,-1.239482164E0,-7.561319470E-1,1.255753326E1,1.264119034E1
2.213026479E0,3.067598581E0,-8.757730722E-1,8.394021988E0,8.979796471E0
2.215402052E0,-2.009970903E0,7.657032460E-2,1.058584690E1,1.077524945E1
2.217777677E0,2.770888567E0,-1.354337573E0,1.082512951E1,1.125590879E1
2.220153302E0,-1.631905079E0,1.579262912E-1,7.848458290E0,8.017877053E0
2.222528875E0,1.655833244E0,-1.502692580E0,1.335195065E1,1.353788960E1
2.224904500E0,2.440679073E-1,-1.914258152E-1,6.283552170E0,6.291203451E0
2.227280073E0,-2.871387303E-1,-8.997012973E-1,1.317488194E1,1.320868749E1
2.229655698E0,1.895115495E0,-5.838487148E-1,6.671189308E0,6.959677352E0
2.232031323E0,-1.383051515E0,-6.173482537E-1,1.224646664E1,1.233976886E1
2.234406896E0,3.115455151E0,-8.805587292E-1,9.126225471E0,9.683461975E0
2.236782521E0,-2.234896421E0,2.105683982E-1,9.757930756E0,1.001280748E1
2.239158094E0,2.483749866E0,-1.469193101E0,1.160040379E1,1.195394955E1
2.241533719E0,-1.129412293E0,8.614161611E-2,7.446464062E0,7.532119192E0
2.243909292E0,1.115055323E0,-1.301695466E0,1.352423382E1,1.363241211E1
2.246284917E0,3.637090325E-1,-2.679961324E-1,6.020341873E0,6.037269454E0
2.248660542E0,-8.470591903E-1,-7.896314859E-1,1.300738430E1,1.305883125E1
2.251036114E0,2.287538528E0,-6.795616150E-1,7.154539585E0,7.542020497E0
2.253411739E0,-1.679761529E0,-2.919243574E-1,1.188754272E1,1.200918360E1
2.255787312E0,2.761317253E0,-1.071984529E0,9.427721024E0,9.882102383E0
2.258162937E0,-2.498106956E0,4.163511395E-1,9.140582085E0,9.484942144E0
2.260538510E0,1.942971945E0,-1.603191137E0,1.222732353E1,1.248410199E1
2.262914135E0,-8.183453679E-1,3.349951655E-2,6.982256413E0,7.030129157E0
2.265289760E0,2.823530734E-1,-1.143769264E0,1.336630726E1,1.341812584E1
2.267665333E0,6.077769399E-1,-2.392822653E-1,6.092126369E0,6.127042722E0
2.270040958E0,-1.368694544E0,-7.657032609E-1,1.273938751E1,1.283556078E1
2.272416531E0,2.493321180E0,-7.417750359E-1,7.814958572E0,8.236531928E0
2.274792156E0,-2.187039852E0,8.614161611E-2,1.121755219E1,1.142908748E1
2.277167729E0,2.545963287E0,-1.258624673E0,1.012164021E1,1.051254801E1
2.279543354E0,-2.368894339E0,3.828516304E-1,8.360522270E0,8.698078431E0
2.281918979E0,1.588834286E0,-1.545763373E0,1.287338543E1,1.306284162E1
2.284294552E0,-4.019941986E-1,2.392822690E-2,6.446264267E0,6.458830768E0
2.286670177E0,-2.009970993E-1,-9.619147182E-1,1.325145149E1,1.328783829E1
2.289045802E0,1.258624673E0,-4.546363056E-1,6.192625046E0,6.335569051E0
2.291421375E0,-1.464407444E0,-6.317051649E-1,1.245224857E1,1.255396492E1
2.293797000E0,2.857030153E0,-7.369893789E-1,8.566305161E0,9.060207434E0
2.296172573E0,-2.392822742E0,2.344966233E-1,1.020778179E1,1.048710630E1
2.298548198E0,2.512463808E0,-1.325623751E0,1.086341476E1,1.122869240E1
2.300923771E0,-1.674975872E0,2.727817893E-1,7.690532207E0,7.875546947E0
2.303299396E0,1.454836130E0,-1.402194023E0,1.329452229E1,1.344719372E1
2.305675021E0,3.828516230E-2,-8.135596663E-2,5.986842155E0,5.987517310E0
2.308050594E0,-5.455635786E-1,-7.752745152E-1,1.310788250E1,1.314211832E1
2.310426219E0,2.038684845E0,-5.551348329E-1,6.714260101E0,7.038870597E0
2.312801792E0,-1.426122308E0,-4.546363056E-1,1.219382381E1,1.228535137E1
2.315177417E0,3.024527788E0,-8.853443861E-1,8.992227554E0,9.528470990E0
2.317553042E0,-2.273181438E0,3.158525825E-1,9.542576790E0,9.814677198E0
2.319928614E0,2.407179594E0,-1.507478237E0,1.171047401E1,1.204998780E1
2.322304239E0,-9.475577474E-1,5.742774159E-2,7.278966427E0,7.340607323E0
2.324679812E0,1.057627559E0,-1.272981644E0,1.340459251E1,1.350637475E1
2.327055437E0,5.599204898E-1,-2.536391914E-1,5.915057659E0,5.946911039E0
2.329431010E0,-8.039883971E-1,-8.374879360E-1,1.300738430E1,1.305908993E1
2.331806635E0,2.555534601E0,-7.848458290E-1,7.240681171E0,7.718432736E0
2.334182260E0,-1.627119422E0,-2.057827413E-1,1.183968639E1,1.195274186E1
2.336557833E0,2.857030153E0,-1.162911773E0,9.504291534E0,9.992324187E0
2.338933458E0,-2.297109842E0,3.397808075E-1,8.915657043E0,9.213094222E0
2.341309031E0,2.258824587E0,-1.674975872E0,1.243789196E1,1.275182297E1
2.343684656E0,-5.838487148E-1,6.221338734E-2,6.848258495E0,6.873383028E0
2.346060281E0,4.019941986E-1,-1.186840057E0,1.334237862E1,1.340109159E1
2.348435854E0,9.140582681E-1,-3.493520916E-1,6.025127411E0,6.104073207E0
2.350811479E0,-1.134197950E0,-8.087740541E-1,1.283510113E1,1.291047410E1
2.353187052E0,2.751745939E0,-7.130611539E-1,7.968099594E0,8.459974767E0
2.355562677E0,-2.201396942E0,-4.785645381E-2,1.105484104E1,1.127199846E1
2.357938198E0,2.670390129E0,-1.162911773E0,1.026999474E1,1.067502408E1
2.360313875E0,-2.124826431E0,2.249253243E-1,8.317451477E0,8.587518724E0
2.362689500E0,1.799402595E0,-1.579262972E0,1.303609753E1,1.325412238E1
2.365065073E0,-3.924229145E-1,-3.828516230E-2,6.336194515E0,6.348450396E0
2.367440698E0,-2.297109663E-1,-9.906286001E-1,1.330409431E1,1.334290215E1
2.369816271E0,1.268195987E0,-4.689932466E-1,6.297909260E0,6.441423505E0
2.372191896E0,-1.359123230E0,-6.699903607E-1,1.272503090E1,1.281493326E1
2.374567469E0,2.775674343E0,-7.417750359E-1,8.504091263E0,8.976311407E0
2.376943094E0,-2.545963287E0,2.201396823E-1,1.033220863E1,1.064353916E1
2.379318719E0,2.469393015E0,-1.339980721E0,1.100219822E1,1.135525499E1
2.381694292E0,-1.660618901E0,1.483550072E-1,7.776673794E0,7.953384163E0
2.384069917E0,1.421336651E0,-1.383051515E0,1.339502144E1,1.354103499E1
2.386445542E0,-1.100698411E-1,-1.100698411E-1,5.972485542E0,5.974513729E0
2.388821114E0,-5.886343718E-1,-8.757730722E-1,1.324188042E1,1.328385734E1
2.391196739E0,2.043470621E0,-5.982056856E-1,6.719046116E0,7.048347532E0
2.393572312E0,-1.478764415E0,-4.354937077E-1,1.248096275E1,1.257580336E1
2.395947937E0,2.852244616E0,-8.949156404E-1,8.915657043E0,9.403462866E0
2.398323510E0,-2.426322222E0,3.541377485E-1,9.700503349E0,1.000560934E1
2.400699135E0,2.507678032E0,-1.507478237E0,1.169611740E1,1.205653773E1
2.403074760E0,-9.284151793E-1,7.657032460E-2,7.350750923E0,7.409544986E0
2.405450333E0,1.048056364E0,-1.272981644E0,1.335673618E1,1.345813159E1
2.407825958E0,5.024927258E-1,-1.244267747E-1,5.948556900E0,5.971039286E0
2.410201583E0,-6.221339107E-1,-8.566305041E-1,1.316052437E1,1.320304011E1
2.412577156E0,2.636890650E0,-6.460621357E-1,7.245467186E0,7.737401587E0
2.414952781E0,-1.612762451E0,-2.344966233E-1,1.192582798E1,1.203666750E1
2.417328354E0,3.019742250E0,-1.024128079E0,9.552147865E0,1.007031332E1
2.419703979E0,-2.129612207E0,2.727817893E-1,8.963513374E0,9.217061900E0
2.422079552E0,2.560320139E0,-1.526620865E0,1.250967693E1,1.285993108E1
2.424455177E0,-4.881358147E-1,3.828516230E-2,6.680760860E0,6.698679572E0
2.426830802E0,6.604190469E-1,-1.143769264E0,1.344766331E1,1.351236507E1
2.429206375E0,1.134197950E0,-3.302095234E-1,5.948556900E0,6.064715369E0
2.431582000E0,-8.327022791E-1,-8.805587292E-1,1.301695538E1,1.307325147E1
2.433957573E0,2.991028309E0,-6.364908218E-1,7.944170952E0,8.512415816E0
2.436333198E0,-2.057827473E0,-1.052841991E-1,1.112662506E1,1.131580858E1
2.438708823E0,2.809173822E0,-1.201196909E0,1.016949654E1,1.061852115E1
2.441084396E0,-1.866401672E0,1.339980662E-1,8.370093346E0,8.576705271E0
2.443460021E0,2.048256159E0,-1.540977836E0,1.290688515E1,1.315893803E1
2.445835594E0,-5.216353536E-1,-2.392822690E-2,6.254838467E0,6.276597824E0
2.448211219E0,-3.349951655E-2,-1.028913736E0,1.345244884E1,1.349178141E1
2.450586844E0,1.383051515E0,-4.689932466E-1,6.139982700E0,6.311273542E0
2.452962417E0,-1.397408366E0,-7.657032609E-1,1.296909904E1,1.306662090E1
2.455338042E0,2.656033039E0,-7.848458290E-1,8.221738815E0,8.675683467E0
2.457713614E0,-2.593819857E0,1.818545163E-1,1.053799057E1,1.085404154E1
2.460089239E0,2.388036966E0,-1.359123230E0,1.085862923E1,1.120088234E1
2.462464812E0,-1.751546144E0,4.785645381E-2,7.915457249E0,8.107075156E0
2.464840437E0,1.373480201E0,-1.426122308E0,1.308395386E1,1.323291809E1
2.467216062E0,-4.737788737E-1,-7.657032460E-2,6.025127411E0,6.044211260E0
2.469591635E0,-5.599204898E-1,-9.714859724E-1,1.332323647E1,1.337033754E1
2.471967260E0,1.655833244E0,-5.790630579E-1,6.522834301E0,6.754588446E0
2.474342885E0,-1.823330879E0,-4.689932466E-1,1.269153118E1,1.283041129E1
2.476718458E0,2.483749866E0,-8.327022791E-1,8.575876236E0,8.967054126E0
2.479094083E0,-2.636890650E0,2.488535494E-1,9.848857880E0,1.019878041E1
2.481469656E0,2.325823545E0,-1.478764415E0,1.143290615E1,1.176042271E1
2.483845281E0,-1.493121386E0,2.057827413E-1,7.369893551E0,7.522439030E0
2.486220906E0,9.906286001E-1,-1.363908887E0,1.320359516E1,1.331076698E1
2.488596479E0,4.785645381E-2,-1.531406492E-1,5.833701611E0,5.835907537E0
2.490972104E0,-7.465606928E-1,-9.762716293E-1,1.328973675E1,1.334644380E1
2.493347677E0,2.273181438E0,-6.077769399E-1,7.058826923E0,7.440684390E0
2.495723302E0,-1.966900229E0,-3.493520916E-1,1.195454216E1,1.212030617E1
2.498098823E0,2.737389088E0,-8.901300430E-1,9.312865257E0,9.747568405E0
2.500474500E0,-2.239681959E0,1.148554832E-1,9.164510727E0,9.434915152E0
2.502850073E0,2.550748825E0,-1.507478237E0,1.213639641E1,1.249283507E1
2.505225698E0,-9.954141974E-1,4.307080805E-2,6.747759819E0,6.820921279E0
2.507601323E0,7.944171429E-1,-1.167697430E0,1.339980698E1,1.347402846E1
2.509976896E0,8.518448472E-1,-2.775674164E-1,5.848058701E0,5.916288860E0
2.512352521E0,-7.130611539E-1,-9.236295223E-1,1.331366539E1,1.336470104E1
2.514728146E0,2.708675146E0,-5.886343718E-1,7.546962738E0,8.039904106E0
2.517103719E0,-2.067398787E0,-1.435693651E-1,1.145204926E1,1.163804889E1
2.519479344E0,2.914458036E0,-1.138983607E0,9.934999466E0,1.041612038E1
2.521854917E0,-1.818545222E0,4.785645381E-2,8.690732002E0,8.879088900E0
2.524230542E0,2.383251429E0,-1.459621787E0,1.255274773E1,1.286008782E1
2.526606167E0,-5.886343718E-1,1.435693540E-2,6.384050846E0,6.411146680E0
2.528981739E0,4.642075896E-1,-1.196411371E0,1.340459251E1,1.346588242E1
2.531357364E0,1.387837172E0,-4.211367965E-1,6.092126369E0,6.262383885E0
2.533732937E0,-9.906286001E-1,-7.800601721E-1,1.326580906E1,1.332559676E1
2.536108562E0,2.679961443E0,-7.465606928E-1,7.843672752E0,8.322424433E0
2.538484187E0,-2.277967215E0,6.699903309E-2,1.094477081E1,1.117951840E1
2.540859760E0,2.761317253E0,-1.359123230E0,1.051884842E1,1.095984767E1
2.543235385E0,-1.641476393E0,1.292124242E-1,8.298309326E0,8.460087368E0
2.545610958E0,1.808973908E0,-1.521835208E0,1.270588779E1,1.292392950E1
2.547986583E0,-4.642075896E-1,7.657032460E-2,6.192625046E0,6.210471533E0
2.550362208E0,-8.614161611E-2,-1.134197950E0,1.356251907E1,1.361013405E1
2.552737781E0,1.679761529E0,-4.594219327E-1,6.403193474E0,6.635778324E0
2.555113406E0,-1.660618901E0,-5.934200287E-1,1.285424328E1,1.297464345E1
2.557488979E0,2.584248543E0,-6.843472719E-1,8.504091263E0,8.914383878E0
2.559864604E0,-2.478964329E0,2.871387079E-2,1.017428207E1,1.047196755E1
2.562240229E0,2.603390932E0,-1.354337573E0,1.125583744E1,1.163210003E1
2.564615802E0,-1.665404558E0,1.962114573E-1,7.546962738E0,7.731023079E0
2.566991427E0,1.215553880E0,-1.373480201E0,1.303131199E1,1.315975346E1
2.569367000E0,-1.818545163E-1,4.785645287E-3,5.991627693E0,5.994388741E0
2.571742625E0,-4.737788737E-1,-1.057627559E0,1.348594856E1,1.353565112E1
2.574118250E0,1.904686809E0,-3.589234054E-1,6.881757736E0,7.149492806E0
2.576493823E0,-2.062613010E0,-3.876372576E-1,1.229910851E1,1.247688684E1
2.578869448E0,2.545963287E0,-7.704889178E-1,9.020941734E0,9.404944019E0
2.581245021E0,-2.311466694E0,8.135596663E-2,9.623932838E0,9.897958393E0
2.583620646E0,2.450250387E0,-1.359123230E0,1.171047401E1,1.204101925E1
2.585996271E0,-1.560120344E0,1.579262912E-1,6.920042992E0,7.095485269E0
2.588371844E0,8.853443861E-1,-1.229910851E0,1.335673618E1,1.344242972E1
2.590747469E0,3.732803464E-1,-1.674975902E-1,5.747560024E0,5.762103773E0
2.593123094E0,-7.465606928E-1,-8.805587292E-1,1.366780281E1,1.371647076E1
2.595498667E0,2.206182480E0,-4.737788737E-1,7.015756130E0,7.369704311E0
2.597874292E0,-2.234896421E0,-1.770688742E-1,1.181575775E1,1.202656421E1
2.600249864E0,2.708675146E0,-9.762716293E-1,9.681360245E0,1.010043383E1
2.602625489E0,-1.976471543E0,0.000000000E0,8.997013092E0,9.211551679E0
2.605001062E0,2.407179594E0,-1.440479279E0,1.205504036E1,1.237713586E1
2.607376687E0,-1.052842021E0,1.579262912E-1,6.604190350E0,6.689450441E0
2.609752312E0,6.891329288E-1,-1.263410330E0,1.348116302E1,1.355776037E1
2.612127885E0,1.105484009E0,-3.254238665E-1,5.977271080E0,6.087344672E0
2.614503510E0,-9.044869542E-1,-8.518448472E-1,1.346201992E1,1.351923506E1
2.616879135E0,2.541177750E0,-6.077769399E-1,7.546962738E0,7.986465034E0
2.619254708E0,-2.139183521E0,-2.153540403E-1,1.124148083E1,1.144523371E1
2.621630333E0,2.947957516E0,-1.205982566E0,1.026999474E1,1.075256431E1
2.624005906E0,-1.636690736E0,4.785645381E-2,8.518448830E0,8.674388582E0
2.626381531E0,2.143969059E0,-1.569691658E0,1.233739376E1,1.262029398E1
2.628757156E0,-5.982056856E-1,8.135596663E-2,6.393621922E0,6.422061204E0
2.631132729E0,4.546363056E-1,-1.363908887E0,1.359601784E1,1.367181929E1
2.633508354E0,1.550549030E0,-3.206382394E-1,6.331408501E0,6.526388341E0
2.635883927E0,-1.402194023E0,-8.566305041E-1,1.304088306E1,1.314399464E1
2.638259552E0,2.627319336E0,-5.934200287E-1,8.169096947E0,8.601691645E0
2.640635177E0,-2.057827473E0,-2.057827413E-1,1.062891865E1,1.082824603E1
2.643010750E0,2.924029350E0,-1.378265858E0,1.088255692E1,1.135251556E1
2.645386375E0,-1.794616938E0,9.571290761E-2,7.743174076E0,7.948997150E0
2.647761948E0,1.698904037E0,-1.521835208E0,1.285424328E1,1.305503074E1
2.650137573E0,-2.009970993E-1,-9.571290575E-3,6.111268997E0,6.114580950E0
2.652513198E0,-3.828516230E-2,-1.201196909E0,1.382094383E1,1.387309728E1
2.654888771E0,1.703689694E0,-3.780659735E-1,6.441478729E0,6.673690184E0
2.657264396E0,-1.914258122E0,-5.982056856E-1,1.268196011E1,1.283956177E1
2.659639969E0,2.541177750E0,-7.609176040E-1,8.724231720E0,9.118596332E0
2.662015594E0,-2.024327993E0,-1.339980662E-1,1.007856941E1,1.028073055E1
2.664391219E0,2.627319336E0,-1.306481123E0,1.120319557E1,1.158107468E1
2.666766792E0,-1.799402595E0,2.009970993E-1,7.293323517E0,7.514706744E0
2.669142417E0,1.201196909E0,-1.430907965E0,1.305524063E1,1.318824020E1
2.671517989E0,1.579262912E-1,-4.785645381E-2,5.962913990E0,5.965196913E0
2.673893614E0,-5.599204898E-1,-1.009771109E0,1.380658627E1,1.385478159E1
2.676269187E0,1.799402595E0,-4.067798555E-1,6.671189308E0,6.921566754E0
2.678644812E0,-2.110469580E0,-4.019941986E-1,1.216511059E1,1.235336378E1
2.681020437E0,2.675175667E0,-8.422735929E-1,9.341579437E0,9.753517111E0
2.683396062E0,-2.019542217E0,3.828516230E-2,9.422935486E0,9.636997961E0
2.685771635E0,2.440679073E0,-1.416550994E0,1.157647610E1,1.191546600E1
2.688147260E0,-1.469193101E0,3.206382394E-1,6.862615108E0,7.025441152E0
2.690522833E0,8.853443861E-1,-1.397408366E0,1.346680546E1,1.356802985E1
2.692898458E0,8.183453679E-1,-1.292124242E-1,6.020341873E0,6.077079995E0
2.695274083E0,-1.028913736E0,-9.044869542E-1,1.347637749E1,1.354583000E1
2.697649656E0,2.120040894E0,-3.349951804E-1,7.374679565E0,7.680670144E0
2.700025281E0,-2.062613010E0,-3.972085714E-1,1.140419292E1,1.159602360E1
2.702400854E0,2.847458839E0,-9.667003751E-1,1.003071213E1,1.047175808E1
2.704776479E0,-1.928615093E0,5.264209956E-2,8.657232285E0,8.869610938E0
2.707152104E0,2.206182480E0,-1.469193101E0,1.189711380E1,1.218880988E1
2.709527677E0,-8.757730722E-1,2.105683982E-1,6.618547440E0,6.679557450E0
2.711903302E0,6.317051649E-1,-1.397408366E0,1.355773354E1,1.364419071E1
2.714278875E0,1.263410330E0,-7.178468257E-2,6.254838467E0,6.381564302E0
2.716654500E0,-1.373480201E0,-8.614161611E-1,1.310309696E1,1.320301616E1
2.719030125E0,2.402393818E0,-5.120640397E-1,7.972885132E0,8.342697583E0
2.721405698E0,-1.837687731E0,-3.397808075E-1,1.093041420E1,1.108902619E1
2.723781323E0,2.928814888E0,-1.115055323E0,1.044706345E1,1.090699040E1
2.726156948E0,-1.914258122E0,1.435693651E-1,8.020741463E0,8.247259541E0
2.728532521E0,1.976471543E0,-1.521835208E0,1.245703506E1,1.270433567E1
2.730908146E0,-2.440679073E-1,3.828516230E-2,6.360122681E0,6.364919120E0
2.733283719E0,2.727817893E-1,-1.229910851E0,1.384965706E1,1.390683613E1
2.735659344E0,1.483550072E0,-3.158525825E-1,6.254838467E0,6.436123671E0
2.738034969E0,-1.718046665E0,-6.221339107E-1,1.281595802E1,1.294555966E1
2.740410542E0,2.593819857E0,-7.704889178E-1,8.580661774E0,8.997183509E0
2.742786167E0,-1.832902193E0,-1.818545163E-1,1.036570740E1,1.052808109E1
2.745161739E0,2.751745939E0,-1.373480201E0,1.076770210E1,1.119830175E1
2.747537364E0,-1.813759565E0,2.153540403E-1,7.570890903E0,7.788099267E0
2.749912989E0,1.517049551E0,-1.564906001E0,1.290688515E1,1.308961628E1
2.752288562E0,2.153540403E-1,-5.264209956E-2,6.254838467E0,6.258766076E0
2.754664187E0,-3.637090325E-1,-1.081555843E0,1.377308750E1,1.382027448E1
2.757039760E0,1.684547186E0,-3.541377485E-1,6.704689026E0,6.922136065E0
2.759415385E0,-1.899901152E0,-6.029912829E-1,1.232782269E1,1.248793158E1
2.761791010E0,2.794816732E0,-8.805587292E-1,9.269794464E0,9.721906894E0
2.764166583E0,-1.971685886E0,9.571290575E-3,9.604789734E0,9.805081472E0
2.766542208E0,2.512463808E0,-1.445264935E0,1.134197903E1,1.170648339E1
2.768917833E0,-1.383051515E0,2.057827413E-1,7.039684296E0,7.177209277E0
2.771293406E0,1.081555843E0,-1.488335729E0,1.345723438E1,1.358241744E1
2.773669031E0,6.939185858E-1,-3.349951655E-2,6.101697922E0,6.141120643E0
2.776044604E0,-1.038485050E0,-9.810572863E-1,1.350509071E1,1.358044181E1
2.778420229E0,2.033899307E0,-3.302095234E-1,7.226324558E0,7.514356349E0
2.780795854E0,-1.895115495E0,-5.168496966E-1,1.160997581E1,1.177497918E1
2.783171427E0,2.880958557E0,-9.523434043E-1,9.887143135E0,1.034226665E1
2.785547052E0,-2.134397745E0,1.052841991E-1,8.671588898E0,8.931024158E0
2.787922677E0,2.177468538E0,-1.464407444E0,1.183968639E1,1.212699601E1
2.790298250E0,-9.188438654E-1,2.057827413E-1,6.699903488E0,6.765746621E0
2.792673875E0,6.221339107E-1,-1.378265858E0,1.372523022E1,1.380828056E1
2.795049448E0,9.379864931E-1,-8.614161611E-2,6.096911907E0,6.169244187E0
2.797425073E0,-1.560120344E0,-7.274180651E-1,1.318445301E1,1.329634964E1
2.799800698E0,2.201396942E0,-5.024927258E-1,7.896314621E0,8.212821198E0
2.802176271E0,-1.856830359E0,-4.067798555E-1,1.100219822E1,1.116519836E1
2.804551896E0,2.785245657E0,-1.067198873E0,1.026520920E1,1.068976270E1
2.806927469E0,-2.139183521E0,2.201396823E-1,8.073383331E0,8.354883963E0
2.809303094E0,1.914258122E0,-1.560120344E0,1.239482117E1,1.263843152E1
2.811678719E0,-3.637090325E-1,8.135596663E-2,6.384050846E0,6.394920505E0
2.814054292E0,4.785645381E-2,-1.191625714E0,1.384008598E1,1.389137294E1
2.816429917E0,1.287338614E0,-2.584248483E-1,6.321837425E0,6.456752476E0
2.818805542E0,-1.756331801E0,-6.652047038E-1,1.271545982E1,1.285340878E1
2.821181114E0,2.550748825E0,-7.609176040E-1,8.676374435E0,9.075504863E0
2.823556739E0,-1.832902193E0,-1.866401732E-1,1.036092186E1,1.052345318E1
2.825932312E0,2.589034081E0,-1.311266780E0,1.058584690E1,1.097645993E1
2.828307937E0,-1.866401672E0,2.727817893E-1,7.685746193E0,7.913820800E0
2.830683562E0,1.607976794E0,-1.646261930E0,1.295952702E1,1.316226076E1
2.833059135E0,2.201396823E-1,0.000000000E0,6.278766632E0,6.282624603E0
2.835434760E0,-4.881358147E-1,-1.095912814E0,1.367258835E1,1.372512199E1
2.837810385E0,1.694118381E0,-2.967100143E-1,6.819544315E0,7.033083150E0
2.840185958E0,-1.832902193E0,-7.226324677E-1,1.208854008E1,1.224804186E1
2.842561583E0,2.823530674E0,-8.374879360E-1,9.403793335E0,9.854188987E0
2.844937156E0,-1.919043779E0,-8.135596663E-2,9.375079155E0,9.569820112E0
2.847312729E0,2.579462767E0,-1.402194023E0,1.129412270E1,1.166948944E1
2.849688406E0,-1.263410330E0,2.392822653E-1,7.140182972E0,7.255044765E0
2.852063979E0,1.253839016E0,-1.617548108E0,1.347637749E1,1.363089595E1
2.854439604E0,7.369893789E-1,4.785645381E-2,6.187839508E0,6.231757486E0
2.856815229E0,-9.762716293E-1,-1.019342422E0,1.341894913E1,1.349297450E1
2.859190802E0,2.134397745E0,-4.450650215E-1,7.389036179E0,7.703998459E0
2.861566427E0,-1.588834286E0,-5.838487148E-1,1.162433243E1,1.174693058E1
2.863942000E0,2.957528830E0,-9.523434043E-1,9.810572624E0,1.029083427E1
2.866317625E0,-2.005185366E0,2.392822690E-2,8.695517540E0,8.923752921E0
2.868693250E0,2.407179594E0,-1.598405480E0,1.182054424E1,1.216859400E1
2.871068823E0,-6.747759581E-1,1.052841991E-1,6.838686943E0,6.872702995E0
2.873444448E0,7.226324677E-1,-1.363908887E0,1.380180073E1,1.388784175E1
2.875820073E0,9.475577474E-1,-1.914258152E-1,6.144768715E0,6.220345014E0
2.878195646E0,-1.435693622E0,-8.231309652E-1,1.312702465E1,1.323093107E1
2.880571271E0,2.373680115E0,-6.460621357E-1,8.121239662E0,8.485651844E0
2.882946844E0,-1.761117458E0,-3.684946895E-1,1.094477081E1,1.109167847E1
2.885322469E0,2.646461725E0,-1.182054400E0,1.020778179E1,1.061130630E1
2.887698094E0,-2.105684042E0,2.201396823E-1,8.173882484E0,8.443620173E0
2.890073667E0,1.818545222E0,-1.651047587E0,1.246660614E1,1.270627142E1
2.892449292E0,-3.158525825E-1,7.178468257E-2,6.494120598E0,6.502193340E0
2.894824864E0,-1.770688742E-1,-1.239482164E0,1.380180073E1,1.385847657E1
2.897200489E0,1.153340459E0,-2.536391914E-1,6.446264267E0,6.553537217E0
2.899576114E0,-1.852044702E0,-7.513462901E-1,1.258624744E1,1.274394819E1
2.901951687E0,2.493321180E0,-7.561319470E-1,8.776873589E0,9.155429865E0
2.904327312E0,-2.043470621E0,-9.571290761E-2,1.016949654E1,1.037321517E1
2.906702937E0,2.469393015E0,-1.344766378E0,1.066241741E1,1.102694171E1
2.909078510E0,-1.895115495E0,2.871387303E-1,7.527820110E0,7.768010492E0
2.911454135E0,1.339980721E0,-1.584048629E0,1.308395386E1,1.324743775E1
2.913829760E0,1.339980662E-1,1.579262912E-1,6.321837425E0,6.325229215E0
2.916205333E0,-9.188438654E-1,-1.067198873E0,1.349073410E1,1.356403679E1
2.918580958E0,1.607976794E0,-2.057827413E-1,6.987041950E0,7.172634880E0
2.920956531E0,-1.813759565E0,-6.939185858E-1,1.198804188E1,1.214431533E1
2.923332156E0,2.737389088E0,-6.987041831E-1,9.466006279E0,9.878601188E0
2.925707781E0,-2.167897224E0,4.785645287E-3,9.174081802E0,9.426748018E0
2.928083354E0,2.388036966E0,-1.402194023E0,1.132762241E1,1.166121341E1
2.930458979E0,-1.182054400E0,2.632105052E-1,7.149754047E0,7.251587089E0
2.932834604E0,1.004985452E0,-1.497906923E0,1.348116302E1,1.360130425E1
2.935210177E0,6.747759581E-1,4.307080805E-2,6.092126369E0,6.129533538E0
2.937585802E0,-1.129412293E0,-8.901300430E-1,1.331845093E1,1.339585901E1
2.939961375E0,2.134397745E0,-4.211367965E-1,7.489534855E0,7.799111634E0
2.942337000E0,-1.536192179E0,-4.977070987E-1,1.141854954E1,1.153216685E1
2.944712625E0,2.991028309E0,-9.810572863E-1,9.772287369E0,1.026675821E1
2.947088198E0,-1.995614052E0,2.440679073E-1,8.537590981E0,8.771117622E0
2.949463823E0,2.349751949E0,-1.574477315E0,1.189232826E1,1.222406579E1
2.951839448E0,-3.589234054E-1,1.339980662E-1,6.757331371E0,6.768183564E0
2.954215021E0,6.556333899E-1,-1.277767301E0,1.375394440E1,1.382872123E1
2.956590646E0,1.201196909E0,-2.009970993E-1,6.206982136E0,6.325338021E0
2.958966219E0,-1.277767301E0,-7.752745152E-1,1.290688515E1,1.299312988E1
2.961341844E0,2.713460922E0,-6.939185858E-1,8.274380684E0,8.735546284E0
2.963717469E0,-1.483550072E0,-2.392822653E-1,1.073420238E1,1.083887806E1
2.966093042E0,2.866601467E0,-1.244267821E0,1.014078236E1,1.061136528E1
2.968468667E0,-1.737189293E0,2.584248483E-1,8.011170387E0,8.201430425E0
2.970844292E0,2.014756680E0,-1.679761529E0,1.260060406E1,1.287074457E1
2.973219864E0,1.387837082E-1,1.148554832E-1,6.436692715E0,6.439213135E0
2.975595489E0,-2.057827413E-1,-1.182054400E0,1.367258835E1,1.372513283E1
2.977971114E0,1.550549030E0,-1.866401732E-1,6.704689026E0,6.884176914E0
2.980346687E0,-1.564906001E0,-7.800601721E-1,1.232782269E1,1.245121026E1
2.982722312E0,2.756531715E0,-7.513462901E-1,9.107083321E0,9.544734410E0
2.985097885E0,-1.952543259E0,-5.264209956E-2,9.671789169E0,9.867051338E0
2.987473510E0,2.531606436E0,-1.349551916E0,1.088734341E1,1.125897722E1
2.989849135E0,-1.564906001E0,2.727817893E-1,7.422535896E0,7.590611295E0
2.992224708E0,1.287338614E0,-1.593619823E0,1.325623703E1,1.341360075E1
2.994600333E0,3.732803464E-1,1.052841991E-1,6.273981094E0,6.285957505E0
2.996975906E0,-1.004985452E0,-9.667003751E-1,1.335195065E1,1.342457044E1
2.999351531E0,1.732403636E0,-3.397808075E-1,7.255038261E0,7.466743168E0
3.001727156E0,-1.698904037E0,-6.125625968E-1,1.177268696E1,1.191040159E1
3.004102729E0,2.670390129E0,-8.183453679E-1,9.566504478E0,9.965875803E0
3.006478354E0,-2.244467735E0,1.196411327E-1,8.939585686E0,9.217816534E0
3.008853979E0,2.330609322E0,-1.435693622E0,1.163390350E1,1.195159683E1
3.011229552E0,-9.954141974E-1,1.914258152E-1,6.876972198E0,6.951276134E0
3.013605177E0,7.561319470E-1,-1.287338614E0,1.385922909E1,1.393941201E1
3.015980802E0,7.274180651E-1,-4.785645381E-2,6.001199245E0,6.045313860E0
3.018356375E0,-1.363908887E0,-7.896314859E-1,1.321795273E1,1.331157540E1
3.020732000E0,2.287538528E0,-5.312066078E-1,7.867600918E0,8.210612473E0
3.023107625E0,-1.617548108E0,-3.302095234E-1,1.109791183E1,1.122003330E1
3.025483198E0,2.794816732E0,-1.052842021E0,9.949356079E0,1.038793354E1
3.027858823E0,-1.971685886E0,2.775674164E-1,8.283951759E0,8.519885308E0
3.030234396E0,2.139183521E0,-1.612762451E0,1.232782269E1,1.261555869E1
3.032610021E0,-1.339980662E-1,1.292124242E-1,6.585047722E0,6.587678258E0
3.034985646E0,2.536391914E-1,-1.244267821E0,1.382094383E1,1.387915789E1
3.037361219E0,1.421336651E0,-2.297109663E-1,6.355337143E0,6.516385133E0
3.039736844E0,-1.440479279E0,-8.231309652E-1,1.272503090E1,1.283272911E1
3.042112469E0,2.861815929E0,-7.609176040E-1,8.714659691E0,9.204036046E0
3.044488042E0,-1.584048629E0,-2.440679073E-1,1.023649502E1,1.036120695E1
3.046863667E0,2.857030153E0,-1.378265858E0,1.054756260E1,1.101423238E1
3.049239239E0,-1.612762451E0,1.962114573E-1,7.776673794E0,7.944567764E0
3.051614864E0,1.861616015E0,-1.813759565E0,1.297388458E1,1.323166728E1
3.053990489E0,3.780659735E-1,9.092725813E-2,6.427121639E0,6.438873676E0
3.056366062E0,-5.455635786E-1,-1.234696507E0,1.354816151E1,1.361524129E1
3.058741687E0,1.789831281E0,-4.163511395E-1,6.991827965E0,7.229280917E0
3.061117312E0,-1.502692580E0,-8.566305041E-1,1.206939697E1,1.219271275E1
3.063492885E0,2.933600664E0,-8.997012973E-1,9.451649666E0,9.937261025E0
3.065868510E0,-1.962114573E0,-8.614161611E-2,9.308079720E0,9.513025914E0
3.068244135E0,2.565105915E0,-1.564906001E0,1.129412270E1,1.168699733E1
3.070619708E0,-1.191625714E0,1.052841991E-1,7.245467186E0,7.343558494E0
3.072995333E0,1.110269666E0,-1.641476393E0,1.364866066E1,1.379177586E1
3.075370906E0,5.312066078E-1,-9.092725813E-2,6.116054535E0,6.139753358E0
3.077746531E0,-1.220339537E0,-1.024128079E0,1.339980698E1,1.349418000E1
3.080122156E0,1.947757602E0,-5.359922647E-1,7.613961697E0,7.877401862E0
3.082497729E0,-1.674975872E0,-6.508477330E-1,1.150947666E1,1.164891411E1
3.084873354E0,2.660818815E0,-1.024128079E0,9.815358162E0,1.022105919E1
3.087248979E0,-2.311466694E0,1.627119333E-1,8.666803360E0,8.971222544E0
3.089624552E0,2.000399828E0,-1.679761529E0,1.190190029E1,1.218517250E1
3.092000177E0,-7.944171429E-1,1.818545163E-1,6.876972198E0,6.925093233E0
3.094375802E0,2.727817893E-1,-1.359123230E0,1.379222965E1,1.386171795E1
3.096751375E0,6.604190469E-1,-1.531406492E-1,6.187839508E0,6.224866517E0
3.099127000E0,-1.698904037E0,-8.135597110E-1,1.301216984E1,1.314780279E1
3.101502625E0,2.191825628E0,-6.747759581E-1,8.178668022E0,8.494117541E0
3.103878198E0,-1.933400750E0,-2.440679073E-1,1.087777138E1,1.105095099E1
3.106253823E0,2.440679073E0,-1.234696507E0,1.003071213E1,1.039695030E1
3.108629396E0,-2.172683001E0,3.110669553E-1,8.121239662E0,8.412600533E0
3.111005021E0,1.756331801E0,-1.660618901E0,1.259103298E1,1.282093866E1
3.113380646E0,-2.632105052E-1,2.105683982E-1,6.613761902E0,6.622345907E0
3.115756219E0,-4.354937077E-1,-1.191625714E0,1.358166122E1,1.364078987E1
3.118131844E0,1.249053478E0,-1.339980662E-1,6.637690067E0,6.755517708E0
3.120507469E0,-1.708475351E0,-7.752745152E-1,1.235175037E1,1.249342531E1
3.122883042E0,2.665604353E0,-6.699903607E-1,8.982656479E0,9.393745316E0
3.125258667E0,-2.053041935E0,-7.657032460E-2,9.734002113E0,9.948449193E0
3.127634292E0,2.502892494E0,-1.316052437E0,1.078684425E1,1.115134404E1
3.130009864E0,-1.564906001E0,3.302095234E-1,7.575676441E0,7.742663796E0
3.132385489E0,1.464407444E0,-1.636690736E0,1.317009544E1,1.335195340E1
3.134761062E0,3.541377485E-1,1.579262912E-1,6.293123722E0,6.305058322E0
3.137136687E0,-7.944171429E-1,-1.014556766E0,1.346201992E1,1.352354999E1
3.139512260E0,1.828116536E0,-3.828516304E-1,7.082755089E0,7.324889425E0
3.141887885E0,-1.454836130E0,-6.699903607E-1,1.192104244E1,1.202816229E1
3.144263510E0,2.880958557E0,-7.800601721E-1,9.403793335E0,9.866090673E0
3.146639135E0,-2.057827473E0,9.092725813E-2,9.054440498E0,9.285785611E0
3.149014708E0,2.531606436E0,-1.507478237E0,1.145683479E1,1.182964857E1
3.151390333E0,-8.853443861E-1,1.387837082E-1,7.054041386E0,7.110738040E0
3.153765958E0,9.571290612E-1,-1.392622828E0,1.368215942E1,1.378611551E1
3.156141531E0,7.513462901E-1,-3.828516230E-2,6.197410583E0,6.242906770E0
3.158517156E0,-1.220339537E0,-9.044869542E-1,1.312702465E1,1.321461696E1
3.160892729E0,2.254039049E0,-5.407779217E-1,7.838887215E0,8.174428760E0
3.163268354E0,-1.569691658E0,-4.163511395E-1,1.129890823E1,1.141501675E1
3.165643979E0,2.737389088E0,-1.076770186E0,9.753145218E0,1.018707881E1
3.168019552E0,-2.105684042E0,3.206382394E-1,8.499305725E0,8.762129420E0
3.170395177E0,2.100898266E0,-1.665404558E0,1.211246777E1,1.240561249E1
3.172770802E0,-4.785645306E-1,2.488535494E-1,6.805187702E0,6.826531459E0
3.175146375E0,6.221338734E-2,-1.311266780E0,1.361037540E1,1.367353684E1
3.177522000E0,9.858429432E-1,-1.004985496E-1,6.455835342E0,6.531446718E0
3.179897625E0,-1.646261930E0,-8.566305041E-1,1.263888931E1,1.277440868E1
3.182273198E0,2.330609322E0,-6.125625968E-1,8.556734085E0,8.889582158E0
3.184648823E0,-1.909472466E0,-1.674975902E-1,1.042313576E1,1.059791959E1
3.187024448E0,2.483749866E0,-1.249053478E0,1.023170948E1,1.060268961E1
3.189400021E0,-2.076970100E0,3.493520916E-1,7.881958008E0,8.158499477E0
3.191775646E0,1.564906001E0,-1.679761529E0,1.285424328E1,1.305764526E1
3.194151271E0,-1.818545163E-1,2.967100143E-1,6.436692715E0,6.446093468E0
3.196526844E0,-7.896314859E-1,-1.052842021E0,1.352423382E1,1.358811593E1
3.198902469E0,1.335195065E0,-2.871387303E-1,6.800402164E0,6.936185127E0
3.201278042E0,-1.727617979E0,-6.652047038E-1,1.218425274E1,1.232408926E1
3.203653667E0,2.541177750E0,-7.226324677E-1,9.131011009E0,9.505532289E0
3.206029292E0,-2.249253273E0,5.264209956E-2,9.456435204E0,9.720394963E0
3.208404864E0,2.407179594E0,-1.373480201E0,1.100219822E1,1.134589473E1
3.210780489E0,-1.440479279E0,2.679961324E-1,7.345965385E0,7.490661514E0
3.213156114E0,1.143769264E0,-1.459621787E0,1.344766331E1,1.357491629E1
3.215531687E0,3.110669553E-1,1.052841991E-1,6.087340832E0,6.096192731E0
3.217907312E0,-1.081555843E0,-8.709874153E-1,1.336152172E1,1.343348967E1
3.220282937E0,2.014756680E0,-4.115654826E-1,7.403393269E0,7.683675066E0
3.222658510E0,-1.521835208E0,-5.551348329E-1,1.157169056E1,1.168452735E1
3.225034135E0,2.746960402E0,-8.805587292E-1,9.523433685E0,9.950726822E0
3.227409760E0,-2.096112728E0,2.536391914E-1,8.810373306E0,9.059839911E0
3.229785333E0,2.445464849E0,-1.545763373E0,1.169611740E1,1.204860345E1
3.232160958E0,-6.221339107E-1,2.201396823E-1,6.958328247E0,6.989552495E0
3.234536583E0,6.699903607E-1,-1.263410330E0,1.365344620E1,1.372813483E1
3.236912156E0,9.140582681E-1,-3.349951655E-2,6.149554253E0,6.217205340E0
3.239287781E0,-1.210768223E0,-8.566305041E-1,1.290209961E1,1.298706856E1
3.241663354E0,2.545963287E0,-5.694918036E-1,8.116454124E0,8.525437087E0
3.244038979E0,-1.564906001E0,-2.249253243E-1,1.086820030E1,1.098259077E1
3.246414604E0,2.790031195E0,-1.138983607E0,9.839286804E0,1.029043840E1
3.248790177E0,-1.808973908E0,3.732803464E-1,8.231309891E0,8.436005413E0
3.251165802E0,2.172683001E0,-1.679761529E0,1.236132145E1,1.266271765E1
3.253541427E0,-2.871387079E-2,2.919243574E-1,6.608976364E0,6.615482817E0
3.255917000E0,-3.828516230E-2,-1.153340459E0,1.350987625E1,1.355907137E1
3.258292625E0,1.402194023E0,-1.244267747E-1,6.532405853E0,6.682361583E0
3.260668250E0,-1.306481123E0,-8.087740541E-1,1.244267750E1,1.253719393E1
3.263043823E0,2.818745136E0,-6.699903607E-1,8.776873589E0,9.242711789E0
3.265419448E0,-1.698904037E0,-6.699903309E-2,1.003071213E1,1.017378738E1
3.267795073E0,2.751745939E0,-1.349551916E0,1.045663452E1,1.089654081E1
3.270170646E0,-1.430907965E0,3.493520916E-1,7.767102242E0,7.905531084E0
3.272546271E0,1.828116536E0,-1.670190215E0,1.314138222E1,1.337263893E1
3.274921896E0,3.349951804E-1,1.818545163E-1,6.192625046E0,6.204345074E0
3.277297469E0,-6.364908218E-1,-1.009771109E0,1.351944828E1,1.357203891E1
3.279673094E0,1.885544300E0,-3.924229145E-1,7.025327206E0,7.284538105E0
3.282048719E0,-1.287338614E0,-7.226324677E-1,1.199282742E1,1.208335002E1
3.284424292E0,2.857030153E0,-7.752745152E-1,9.336793900E0,9.794865604E0
3.286799917E0,-1.966900229E0,3.349951655E-2,9.183652878E0,9.391980564E0
3.289175489E0,2.632104874E0,-1.507478237E0,1.125583744E1,1.165737291E1
3.291551114E0,-9.810572863E-1,1.483550072E-1,7.250252724E0,7.317830769E0
3.293926739E0,1.048056364E0,-1.416550994E0,1.361516094E1,1.372871612E1
3.296302364E0,6.173482537E-1,-9.092725813E-2,6.159125328E0,6.190655170E0
3.298677937E0,-1.124626637E0,-9.475577474E-1,1.323230934E1,1.331377712E1
3.301053562E0,2.177468538E0,-5.790630579E-1,7.680960655E0,8.004613660E0
3.303429135E0,-1.574477315E0,-4.594219327E-1,1.145683479E1,1.157363862E1
3.305804760E0,2.694318295E0,-1.081555843E0,9.571290970E0,1.000193606E1
3.308180385E0,-2.139183521E0,2.344966233E-1,8.623732567E0,8.888186440E0
3.310555958E0,2.230110645E0,-1.713261008E0,1.209332561E1,1.241600504E1
3.312931583E0,-5.551348329E-1,1.627119333E-1,6.900900364E0,6.925104742E0
3.315307208E0,1.722832322E-1,-1.354337573E0,1.368694592E1,1.375486824E1
3.317682781E0,8.805587292E-1,-1.339980662E-1,6.312266350E0,6.374797693E0
3.320058406E0,-1.493121386E0,-9.044869542E-1,1.282074356E1,1.293904840E1
3.322434031E0,2.502892494E0,-6.795616150E-1,8.537590981E0,8.922820999E0
3.324809604E0,-1.904686809E0,-3.158525825E-1,1.043270683E1,1.060985233E1
3.327185229E0,2.579462767E0,-1.225125194E0,1.033699417E1,1.072417868E1
3.329560854E0,-1.971685886E0,2.009970993E-1,8.006384850E0,8.248038762E0
3.331936427E0,1.775474429E0,-1.761117458E0,1.279202938E1,1.303418044E1
3.334312052E0,-8.614161611E-2,1.435693651E-1,6.570691109E0,6.572823913E0
3.336687677E0,-5.838487148E-1,-1.191625714E0,1.368694592E1,1.375112140E1
3.339063198E0,1.335195065E0,-3.349951804E-1,6.685546398E0,6.825796530E0
3.341438875E0,-1.445264935E0,-8.757730722E-1,1.246660614E1,1.258062152E1
3.343814500E0,2.622533560E0,-7.657032609E-1,8.953942299E0,9.361467110E0
3.346190073E0,-2.096112728E0,-4.307080805E-2,9.767501831E0,9.989976761E0
3.348565698E0,2.550748825E0,-1.478764415E0,1.085384369E1,1.124717683E1
3.350941323E0,-1.378265858E0,2.009970993E-1,7.599604607E0,7.726189668E0
3.353316896E0,1.368694544E0,-1.603191137E0,1.349551964E1,1.365915799E1
3.355692469E0,1.962114573E-1,3.349951655E-2,6.125626087E0,6.128859283E0
3.358068146E0,-9.475577474E-1,-1.004985452E0,1.354816151E1,1.361838983E1
3.360443719E0,1.904686809E0,-4.881358147E-1,7.250252724E0,7.512141703E0
3.362819344E0,-1.464407444E0,-6.556333899E-1,1.182532978E1,1.193368211E1
3.365194969E0,2.790031195E0,-9.762716293E-1,9.403793335E0,9.857419005E0
3.367570542E0,-2.033899307E0,1.244267747E-1,9.011369705E0,9.238885884E0
3.369946167E0,2.459821701E0,-1.660618901E0,1.163868904E1,1.201113902E1
3.372321739E0,-7.704889178E-1,1.339980662E-1,7.164111137E0,7.206670316E0
3.374697364E0,7.513462901E-1,-1.416550994E0,1.367258835E1,1.376629253E1
3.377072989E0,7.417750359E-1,-1.483550072E-1,6.226124287E0,6.271910638E0
3.379448562E0,-1.196411371E0,-9.667003751E-1,1.315095329E1,1.324059977E1
3.381824187E0,2.445464849E0,-7.274180651E-1,8.082955360E0,8.476060567E0
3.384199812E0,-1.574477315E0,-4.163511395E-1,1.112183952E1,1.124044668E1
3.386575385E0,2.746960402E0,-1.215553880E0,9.887143135E0,1.033339064E1
3.388951010E0,-1.976471543E0,1.914258152E-1,8.422736168E0,8.653644790E0
3.391326635E0,2.143969059E0,-1.828116536E0,1.243310642E1,1.274836259E1
3.393702208E0,-2.584248483E-1,1.866401732E-1,6.857829571E0,6.865234474E0
3.396077833E0,-1.483550072E-1,-1.359123230E0,1.362951756E1,1.369791860E1
3.398453458E0,1.110269666E0,-1.866401732E-1,6.642475605E0,6.737211252E0
3.400829031E0,-1.344766378E0,-9.810572863E-1,1.261017513E1,1.271956709E1
3.403204656E0,2.584248543E0,-7.465606928E-1,8.810373306E0,9.211860355E0
3.405580281E0,-2.043470621E0,-1.674975902E-1,1.014078236E1,1.034597963E1
3.407955854E0,2.545963287E0,-1.359123230E0,1.047577763E1,1.086605089E1
3.410331479E0,-1.674975872E0,2.105683982E-1,7.953742504E0,8.130922644E0
3.412707104E0,1.569691658E0,-1.713261008E0,1.302174091E1,1.322743103E1
3.415082677E0,-5.742774159E-2,1.483550072E-1,6.446264267E0,6.448226900E0
3.417458302E0,-7.896314859E-1,-1.067198873E0,1.349551964E1,1.356065934E1
3.419833927E0,1.454836130E0,-3.780659735E-1,7.034898758E0,7.193697421E0
3.422209500E0,-1.507478237E0,-7.322037220E-1,1.209811115E1,1.221363608E1
3.424585125E0,2.584248543E0,-8.135597110E-1,9.121439934E0,9.515297494E0
3.426960750E0,-2.230110645E0,1.387837082E-1,9.346364975E0,9.609744672E0
3.429336323E0,2.450250387E0,-1.521835208E0,1.116012478E1,1.152684234E1
3.431711948E0,-1.196411371E0,2.584248483E-1,7.307680130E0,7.409478555E0
3.434087573E0,9.619147182E-1,-1.378265858E0,1.357687569E1,1.368051352E1
3.436463146E0,4.211367965E-1,5.264209956E-2,6.125626087E0,6.140311259E0
3.438838771E0,-1.167697430E0,-8.518448472E-1,1.317488194E1,1.325393040E1
3.441214396E0,2.076970100E0,-4.642075896E-1,7.618747234E0,7.910411045E0
3.443589969E0,-1.512263894E0,-3.541377485E-1,1.138504982E1,1.149050543E1
3.445965542E0,2.646461725E0,-9.475577474E-1,9.418149948E0,9.828691357E0
3.448341219E0,-2.091326952E0,3.684946895E-1,8.681160927E0,8.937113169E0
3.450716792E0,2.330609322E0,-1.603191137E0,1.189232826E1,1.222413323E1
3.453092417E0,-5.168496966E-1,3.397808075E-1,6.896114826E0,6.923798401E0
3.455468042E0,3.589234054E-1,-1.253839016E0,1.354816151E1,1.361079052E1
3.457843614E0,1.000199914E0,1.435693540E-2,6.302694798E0,6.381580345E0
3.460219239E0,-1.268195987E0,-8.183453679E-1,1.270110226E1,1.279046554E1
3.462594864E0,2.689532757E0,-5.694918036E-1,8.374878883E0,8.814562024E0
3.464970437E0,-1.689332843E0,-1.962114573E-1,1.040877819E1,1.054680083E1
3.467346062E0,2.746960402E0,-1.153340459E0,1.011685371E1,1.054640767E1
3.469721687E0,-1.660618901E0,2.967100143E-1,8.068597794E0,8.243055400E0
3.472097260E0,2.086541414E0,-1.679761529E0,1.270588779E1,1.298517765E1
3.474472885E0,1.004985496E-1,2.584248483E-1,6.503692150E0,6.509600214E0
3.476848510E0,-3.206382394E-1,-1.095912814E0,1.347159195E1,1.351989732E1
3.479224083E0,1.517049551E0,-2.201396823E-1,6.704689026E0,6.877699888E0
3.481599708E0,-1.191625714E0,-7.944171429E-1,1.232303619E1,1.240597805E1
3.483975333E0,2.794816732E0,-6.843472719E-1,8.843872070E0,9.300183060E0
3.486350906E0,-1.923829436E0,2.871387079E-2,9.714859962E0,9.903557355E0
3.488726531E0,2.708675146E0,-1.402194023E0,1.071984577E1,1.114532021E1
3.491102156E0,-1.268195987E0,2.775674164E-1,7.604390144E0,7.714409517E0
3.493477729E0,1.493121386E0,-1.512263894E0,1.334716511E1,1.351529393E1
3.495853354E0,2.967100143E-1,1.052841991E-1,6.144768715E0,6.152828955E0
3.498228979E0,-8.518448472E-1,-9.379864931E-1,1.347159195E1,1.353104756E1
3.500604552E0,1.938186288E0,-3.972085714E-1,7.269395351E0,7.533820380E0
3.502980177E0,-1.421336651E0,-5.455635786E-1,1.175833035E1,1.185648219E1
3.505355802E0,2.675175667E0,-9.140582681E-1,9.298508644E0,9.718761771E0
3.507731375E0,-2.143969059E0,2.392822653E-1,9.016156197E0,9.270648947E0
3.510107000E0,2.431107759E0,-1.607976794E0,1.154297638E1,1.190530042E1
3.512482625E0,-8.374879360E-1,2.823530734E-1,7.125825882E0,7.180425043E0
3.514858198E0,5.838487148E-1,-1.363908887E0,1.361516094E1,1.369575607E1
3.517233823E0,6.269195080E-1,4.785645381E-2,6.183053493E0,6.214939164E0
3.519609448E0,-1.359123230E0,-9.044869542E-1,1.298345566E1,1.308569576E1
3.521985021E0,2.244467735E0,-5.407779217E-1,8.092526436E0,8.415406127E0
3.524360646E0,-1.761117458E0,-3.014956415E-1,1.094477081E1,1.108965475E1
3.526736271E0,2.565105915E0,-1.062413216E0,9.767501831E0,1.015443658E1
3.529111844E0,-2.148754835E0,2.775674164E-1,8.398807526E0,8.673762671E0
3.531487469E0,2.000399828E0,-1.751546144E0,1.232782269E1,1.261129357E1
3.533863094E0,-4.785645306E-1,3.684946895E-1,6.786045074E0,6.812871648E0
3.536238667E0,-2.679961324E-1,-1.225125194E0,1.353859043E1,1.359655046E1
3.538614292E0,1.048056364E0,-1.483550072E-1,6.623332977E0,6.707381835E0
3.540989917E0,-1.469193101E0,-8.853443861E-1,1.255274773E1,1.266940561E1
3.543365489E0,2.502892494E0,-6.460621357E-1,8.729017258E0,9.103714045E0
3.545741114E0,-2.072184324E0,-1.196411327E-1,1.006421185E1,1.027602170E1
3.548116739E0,2.502892494E0,-1.316052437E0,1.039920712E1,1.077682576E1
3.550492312E0,-1.722832322E0,2.057827413E-1,7.953742504E0,8.140793424E0
3.552867937E0,1.607976794E0,-1.646261930E0,1.307916832E1,1.328007574E1
3.555243562E0,-7.178468257E-2,1.387837082E-1,6.355337143E0,6.357257597E0
3.557619135E0,-7.800601721E-1,-1.076770186E0,1.357687569E1,1.364182837E1
3.559994760E0,1.521835208E0,-4.354937077E-1,6.967899323E0,7.145436176E0
3.562370385E0,-1.521835208E0,-7.465606928E-1,1.216511059E1,1.228264022E1
3.564745958E0,2.612962246E0,-8.949156404E-1,9.059226990E0,9.470904886E0
3.567121531E0,-2.191825628E0,9.571290761E-2,9.418149948E0,9.670305527E0
3.569497208E0,2.459821701E0,-1.598405480E0,1.119362450E1,1.157164000E1
3.571872781E0,-1.215553880E0,1.818545163E-1,7.422535896E0,7.523608272E0
3.574248406E0,9.714859724E-1,-1.435693622E0,1.359123230E1,1.370133558E1
3.576624031E0,3.684946895E-1,-5.742774159E-2,6.206982136E0,6.218176060E0
3.578999656E0,-1.091127157E0,-1.019342422E0,1.326580906E1,1.334958080E1
3.581375229E0,2.110469580E0,-5.838487148E-1,7.767102242E0,8.069872267E0
3.583750854E0,-1.560120344E0,-5.312066078E-1,1.147119141E1,1.158897701E1
3.586126479E0,2.660818815E0,-1.057627559E0,9.494720459E0,9.917068590E0
3.588502052E0,-2.076970100E0,1.770688742E-1,8.843872070E0,9.086211057E0
3.590877677E0,2.325823545E0,-1.765903115E0,1.197846985E1,1.232929880E1
3.593253302E0,-5.742774606E-1,2.249253243E-1,7.077969551E0,7.104789861E0
3.595628875E0,2.967100143E-1,-1.416550994E0,1.362473202E1,1.370138592E1
3.598004500E0,8.327022791E-1,-5.742774159E-2,6.441478729E0,6.495332112E0
3.600380125E0,-1.244267821E0,-9.762716293E-1,1.283510113E1,1.293217420E1
3.602755698E0,2.478964329E0,-6.364908218E-1,8.394021988E0,8.775533593E0
3.605131323E0,-1.813759565E0,-2.632105052E-1,1.056191921E1,1.071975471E1
3.607506948E0,2.660818815E0,-1.210768223E0,1.004985523E1,1.046639893E1
3.609882521E0,-1.847259045E0,2.775674164E-1,8.269595146E0,8.477948663E0
3.612258146E0,2.033899307E0,-1.765903115E0,1.270110226E1,1.298357265E1
3.614633771E0,-2.392822653E-1,2.775674164E-1,6.599404812E0,6.609572115E0
3.617009344E0,-3.924229145E-1,-1.138983607E0,1.354816151E1,1.360161607E1
3.619384969E0,1.296909928E0,-2.632105052E-1,6.675975323E0,6.805872585E0
3.621760594E0,-1.316052437E0,-8.374879360E-1,1.238046455E1,1.247835256E1
3.624136167E0,2.579462767E0,-6.843472719E-1,8.829515457E0,9.224006860E0
3.626511792E0,-2.105684042E0,2.392822690E-2,9.801001549E0,1.002467502E1
3.628887417E0,2.550748825E0,-1.397408366E0,1.068156052E1,1.107044736E1
3.631262989E0,-1.454836130E0,2.488535494E-1,7.719245911E0,7.859086059E0
3.633638614E0,1.373480201E0,-1.502692580E0,1.326102352E1,1.341638095E1
3.636014239E0,-1.914258115E-2,1.100698411E-1,6.206982136E0,6.207987519E0
3.638389812E0,-9.379864931E-1,-9.475577474E-1,1.339502144E1,1.346121405E1
3.640765437E0,1.722832322E0,-4.163511395E-1,7.197610378E0,7.412630750E0
3.643141062E0,-1.507478237E0,-5.599204898E-1,1.184925747E1,1.195788042E1
3.645516687E0,2.545963287E0,-8.518448472E-1,9.121439934E0,9.508324520E0
3.647892260E0,-2.206182480E0,1.962114573E-1,9.169296265E0,9.433012989E0
3.650267885E0,2.455035925E0,-1.607976794E0,1.142812061E1,1.179892925E1
3.652643458E0,-1.081555843E0,2.775674164E-1,7.278966427E0,7.364112910E0
3.655019083E0,6.317051649E-1,-1.421336651E0,1.356730461E1,1.365617090E1
3.657394708E0,4.642075896E-1,5.264209956E-2,6.264409542E0,6.281806013E0
3.659770333E0,-1.234696507E0,-9.762716293E-1,1.301695538E1,1.311177749E1
3.662145906E0,2.225325108E0,-5.359922647E-1,7.934599876E0,8.258161705E0
3.664521531E0,-1.679761529E0,-3.541377485E-1,1.104048347E1,1.117315030E1
3.666897104E0,2.608176708E0,-1.052842021E0,9.662218094E0,1.006327584E1
3.669272729E0,-2.096112728E0,2.871387303E-1,8.599804878E0,8.856228383E0
3.671648354E0,2.206182480E0,-1.732403636E0,1.211725426E1,1.243769730E1
3.674023979E0,-4.354937077E-1,3.445664644E-1,6.915257454E0,6.937518755E0
3.676399552E0,0.000000000E0,-1.296909928E0,1.354337597E1,1.360533013E1
3.678775177E0,1.009771109E0,-1.627119333E-1,6.498906136E0,6.578897615E0
3.681150802E0,-1.186840057E0,-9.619147182E-1,1.266760349E1,1.275939056E1
3.683526375E0,2.565105915E0,-6.221339107E-1,8.551948547E0,8.950007984E0
3.685902000E0,-1.938186288E0,-1.244267747E-1,1.026999474E1,1.045202564E1
3.688277625E0,2.718246460E0,-1.272981644E0,1.027478027E1,1.070422607E1
3.690653198E0,-1.598405480E0,2.249253243E-1,8.097311974E0,8.256630831E0
3.693028823E0,1.923829436E0,-1.689332843E0,1.300738430E1,1.325696087E1
3.695404448E0,-1.196411327E-1,1.674975902E-1,6.364908218E0,6.368235711E0
3.697780021E0,-5.024927258E-1,-1.071984529E0,1.361037540E1,1.366177033E1
3.700155646E0,1.497906923E0,-3.780659735E-1,6.891329288E0,7.062370593E0
3.702531271E0,-1.205982566E0,-7.704889178E-1,1.225603771E1,1.233930742E1
3.704906896E0,2.670390129E0,-7.896314859E-1,8.934800148E0,9.358694087E0
3.707282417E0,-2.000399828E0,6.699903309E-2,9.585647583E0,9.792381116E0
3.709658094E0,2.636890650E0,-1.531406522E0,1.093998528E1,1.135701000E1
3.712033719E0,-1.229910851E0,1.962114573E-1,7.585247993E0,7.686817726E0
3.714409292E0,1.229910851E0,-1.488335729E0,1.337587833E1,1.351450869E1
3.716784864E0,3.014956415E-1,3.349951655E-2,6.312266350E0,6.319551274E0
3.719160542E0,-8.805587292E-1,-1.000199914E0,1.321795273E1,1.328495607E1
3.721536114E0,2.000399828E0,-5.168496966E-1,7.570890903E0,7.847746310E0
3.723911739E0,-1.488335729E0,-4.977070987E-1,1.160519028E1,1.171081965E1
3.726287364E0,2.608176708E0,-9.571290612E-1,9.288937569E0,9.695516641E0
3.728662937E0,-2.124826431E0,2.297109663E-1,8.939585686E0,9.191509491E0
3.731038562E0,2.411965132E0,-1.660618901E0,1.173918819E1,1.209891608E1
3.733414187E0,-8.039883971E-1,3.445664644E-1,7.121040344E0,7.174561936E0
3.735789760E0,4.115654826E-1,-1.373480201E0,1.359123230E1,1.366665392E1
3.738165385E0,6.412764788E-1,3.828516230E-2,6.340980053E0,6.373439363E0
3.740541010E0,-1.119840980E0,-9.762716293E-1,1.291645622E1,1.300161496E1
3.742916583E0,2.311466694E0,-5.599204898E-1,8.130811691E0,8.471510372E0
3.745292208E0,-1.852044702E0,-2.632105052E-1,1.080598736E1,1.096670927E1
3.747667833E0,2.660818815E0,-1.091127157E0,9.748359680E0,1.016371151E1
3.750043458E0,-1.976471543E0,3.349951804E-1,8.484949112E0,8.718544773E0
3.752419031E0,2.201396942E0,-1.674975872E0,1.252403355E1,1.282587654E1
3.754794656E0,-4.642075896E-1,3.445664644E-1,6.604190350E0,6.629445294E0
3.757170281E0,-1.866401732E-1,-1.138983607E0,1.365344620E1,1.370214258E1
3.759545854E0,1.048056364E0,-2.105683982E-1,6.541976929E0,6.628742213E0
3.761921479E0,-1.134197950E0,-8.327022791E-1,1.255274773E1,1.263136072E1
3.764297104E0,2.517249346E0,-6.269195080E-1,8.523234367E0,8.909270252E0
3.766672677E0,-2.005185366E0,-2.871387079E-2,1.005942631E1,1.025737054E1
3.769048302E0,2.694318295E0,-1.311266780E0,1.037049294E1,1.079471609E1
3.771423927E0,-1.531406522E0,2.536391914E-1,7.929814339E0,8.080315230E0
3.773799500E0,1.741974831E0,-1.536192179E0,1.308873940E1,1.329321111E1
3.776175125E0,-9.571290761E-2,2.201396823E-1,6.374479294E0,6.378997469E0
3.778550750E0,-5.216353536E-1,-1.052842021E0,1.341416359E1,1.346552504E1
3.780926323E0,1.665404558E0,-3.684946895E-1,7.025327206E0,7.229424806E0
3.783301948E0,-1.253839016E0,-6.460621357E-1,1.214596748E1,1.222759317E1
3.785677573E0,2.675175667E0,-8.087740541E-1,8.791230202E0,9.224771476E0
3.788053198E0,-2.053041935E0,1.483550072E-1,9.571290970E0,9.790127743E0
3.790428771E0,2.732603550E0,-1.540977836E0,1.109791183E1,1.153279593E1
3.792804344E0,-1.086341500E0,3.110669553E-1,7.575676441E0,7.659489151E0
3.795180021E0,1.129412293E0,-1.488335729E0,1.335195065E1,1.348203625E1
3.797555594E0,3.924229145E-1,1.722832322E-1,6.254838467E0,6.269504087E0
3.799931219E0,-7.944171429E-1,-1.028913736E0,1.314616776E1,1.321027966E1
3.802306844E0,2.177468538E0,-5.312066078E-1,7.661818027E0,7.982919590E0
3.804682417E0,-1.473978758E0,-5.072783828E-1,1.134197903E1,1.144859961E1
3.807058042E0,2.727817774E0,-9.523434043E-1,9.274580956E0,9.714206075E0
3.809433667E0,-1.875972986E0,1.818545163E-1,9.059226990E0,9.253212381E0
3.811809292E0,2.512463808E0,-1.732403636E0,1.168654537E1,1.207845352E1
3.814184864E0,-7.992027402E-1,4.163511395E-1,7.283751965E0,7.339285794E0
3.816560489E0,4.307080805E-1,-1.397408366E0,1.344766331E1,1.352693269E1
3.818936114E0,6.029912829E-1,-1.244267747E-1,6.345765591E0,6.375564402E0
3.821311687E0,-9.810572863E-1,-9.954141974E-1,1.298345566E1,1.305846253E1
3.823687312E0,2.273181438E0,-5.838487148E-1,8.039883614E0,8.375438000E0
3.826062937E0,-1.957328916E0,-2.536391914E-1,1.079641533E1,1.097533841E1
3.828438510E0,2.622533560E0,-1.158126116E0,9.748359680E0,1.016117389E1
3.830814135E0,-1.976471543E0,1.962114573E-1,8.528019905E0,8.756258459E0
3.833189760E0,2.120040894E0,-1.703689694E0,1.264846039E1,1.293756863E1
3.835565333E0,-7.704889178E-1,2.823530734E-1,6.556334019E0,6.607487586E0
3.837940958E0,-3.302095234E-1,-1.167697430E0,1.373480225E1,1.378830477E1
3.840316583E0,1.019342422E0,-3.206382394E-1,6.642475605E0,6.727878567E0
3.842692208E0,-1.225125194E0,-9.236295223E-1,1.263410378E1,1.272692427E1
3.845067781E0,2.273181438E0,-7.369893789E-1,8.360522270E0,8.695334371E0
3.847443406E0,-2.124826431E0,-1.435693540E-2,1.027478027E1,1.049219725E1
3.849819031E0,2.555534601E0,-1.435693622E0,1.036570740E1,1.077218005E1
3.852194604E0,-1.722832322E0,2.440679073E-1,8.207381248E0,8.389804963E0
3.854570229E0,1.512263894E0,-1.588834286E0,1.305524063E1,1.323822663E1
3.856945854E0,-3.780659735E-1,1.483550072E-1,6.422336102E0,6.435164651E0
3.859321427E0,-7.226324677E-1,-1.110269666E0,1.344287777E1,1.350799242E1
3.861697052E0,1.540977836E0,-4.402793646E-1,7.082755089E0,7.261809572E0
3.864072677E0,-1.392622828E0,-6.508477330E-1,1.216511059E1,1.226184801E1
3.866448250E0,2.464607239E0,-8.566305041E-1,8.690732002E0,9.073969771E0
3.868823875E0,-2.110469580E0,1.579262912E-1,9.667003632E0,9.895957850E0
3.871199500E0,2.612962246E0,-1.660618901E0,1.101177025E1,1.143871981E1
3.873575125E0,-1.268195987E0,4.115654826E-1,7.786244869E0,7.899576974E0
3.875950698E0,9.236295223E-1,-1.564906001E0,1.325145149E1,1.337546220E1
3.878326323E0,2.057827413E-1,6.699903309E-2,6.407979012E0,6.411632430E0
3.880701948E0,-7.896314859E-1,-1.071984529E0,1.319402409E1,1.326103089E1
3.883077521E0,2.072184324E0,-5.024927258E-1,7.637889862E0,7.929931170E0
3.885453146E0,-1.617548108E0,-5.072783828E-1,1.134197903E1,1.146796763E1
3.887828771E0,2.703889608E0,-9.284151793E-1,9.265008926E0,9.696048895E0
3.890204344E0,-1.919043779E0,1.914258152E-1,9.131011009E0,9.332455996E0
3.892579969E0,2.612962246E0,-1.732403636E0,1.193539906E1,1.234028139E1
3.894955594E0,-9.284151793E-1,3.924229145E-1,7.068397999E0,7.139902013E0
3.897331219E0,3.972085714E-1,-1.296909928E0,1.362951756E1,1.369684266E1
3.899706792E0,7.130611539E-1,-1.483550072E-1,6.393621922E0,6.434972159E0
3.902082417E0,-8.231309652E-1,-9.475577474E-1,1.304566860E1,1.310591010E1
3.904458042E0,2.306680918E0,-6.317051649E-1,7.834101200E0,8.191029843E0
3.906833614E0,-1.875972986E0,-1.818545163E-1,1.090648556E1,1.106814225E1
3.909209239E0,2.809173822E0,-1.244267821E0,9.643074989E0,1.012069934E1
3.911584864E0,-1.813759565E0,2.344966233E-1,8.657232285E0,8.848298325E0
3.913960437E0,2.129612207E0,-1.598405480E0,1.255753326E1,1.283673595E1
3.916336062E0,-5.694918036E-1,2.584248483E-1,6.704689026E0,6.733792338E0
3.918711687E0,-1.100698411E-1,-1.210768223E0,1.351944828E1,1.357400298E1
3.921087260E0,1.124626637E0,-3.206382394E-1,6.719046116E0,6.820056793E0
3.923462885E0,-1.024128079E0,-7.992027402E-1,1.261017513E1,1.267691130E1
3.925838510E0,2.344966173E0,-7.609176040E-1,8.154739380E0,8.519250924E0
3.928214083E0,-2.005185366E0,-4.785645287E-3,1.031785107E1,1.051089158E1
3.930589708E0,2.718246460E0,-1.406979680E0,1.031785107E1,1.076227236E1
3.932965333E0,-1.588834286E0,3.254238665E-1,8.293522835E0,8.450610398E0
3.935340958E0,1.507478237E0,-1.641476393E0,1.282074356E1,1.301300891E1
