"Time (s)","Acceleration x (m/s^2)","Acceleration y (m/s^2)","Acceleration z (m/s^2)","Absolute acceleration (m/s^2)"
1.151215100E-2,-2.239681959E0,7.657032460E-2,8.757730484E0,9.039904951E0
1.388762000E-2,1.378265858E0,-1.545763373E0,1.218425274E1,1.235900546E1
1.626308800E-2,-4.307080805E-1,4.785645381E-2,6.288337708E0,6.303252400E0
1.863923400E-2,-5.359922647E-1,-1.301695466E0,1.339502144E1,1.346878978E1
2.101485900E-2,1.732403636E0,-3.684946895E-1,6.230910301E0,6.477750680E0
2.339048400E-2,-2.411965132E0,-6.604190469E-1,1.280638695E1,1.304826716E1
2.576610900E-2,2.469393015E0,-8.279166222E-1,8.599804878E0,8.985543486E0
2.814173400E-2,-2.469393015E0,-9.092725813E-2,1.023649502E1,1.053052705E1
3.051741100E-2,2.091326952E0,-1.502692580E0,1.137069321E1,1.165866190E1
3.289303600E-2,-1.430907965E0,6.699903309E-2,7.293323517E0,7.432668054E0
3.526866100E-2,9.092725813E-2,-1.383051515E0,1.303609753E1,1.310957429E1
3.764428600E-2,7.657032609E-1,-2.727817893E-1,5.690132141E0,5.747896587E0
4.001991100E-2,-1.718046665E0,-9.571290612E-1,1.342852020E1,1.357176979E1
4.239553600E-2,2.263610125E0,-6.843472719E-1,7.264609337E0,7.639817459E0
4.477116100E-2,-2.904886723E0,-4.785645381E-2,1.149033451E1,1.185193842E1
4.714678600E-2,2.344966173E0,-1.478764415E0,1.015992451E1,1.053136632E1
4.952241100E-2,-2.048256159E0,1.148554832E-1,8.709874153E0,8.948209477E0
5.189803600E-2,9.523434043E-1,-1.622333765E0,1.269153118E1,1.283019441E1
5.427366100E-2,-4.115654826E-1,-3.828516230E-2,6.197410583E0,6.211179424E0
5.664933800E-2,-1.091127157E0,-1.167697430E0,1.315573883E1,1.325245411E1
5.902496300E-2,2.014756680E0,-6.029912829E-1,6.474977970E0,6.807949962E0
6.140058800E-2,-2.378465652E0,-5.168496966E-1,1.257188988E1,1.280533668E1
6.377621300E-2,2.478964329E0,-1.000199914E0,8.781659126E0,9.179498953E0
6.615183800E-2,-2.746960402E0,1.292124242E-1,9.767501831E0,1.014724491E1
6.852746300E-2,1.904686809E0,-1.684547186E0,1.205025482E1,1.231560686E1
7.090308800E-2,-9.667003751E-1,-1.435693540E-2,7.188039303E0,7.252766697E0
7.327866100E-2,-1.818545163E-1,-1.244267821E0,1.328495121E1,1.334433221E1
7.565433800E-2,9.092726111E-1,-3.684946895E-1,5.790630817E0,5.873156756E0
7.802996300E-2,-1.631905079E0,-9.667003751E-1,1.299302673E1,1.313074132E1
8.040558800E-2,2.694318295E0,-7.274180651E-1,7.695317745E0,8.185743907E0
8.278121300E-2,-2.656033039E0,3.828516230E-2,1.099741268E1,1.131366709E1
8.515689100E-2,2.330609322E0,-1.454836130E0,1.029392338E1,1.065425485E1
8.753251600E-2,-1.813759565E0,8.614161611E-2,8.489734650E0,8.681747437E0
8.990814100E-2,1.014556766E0,-1.502692580E0,1.316530991E1,1.328957469E1
9.228376600E-2,3.828516230E-2,-1.770688742E-1,6.254838467E0,6.257461417E0
9.465939100E-2,-1.177268744E0,-1.028913736E0,1.315095329E1,1.324357194E1
9.703501600E-2,2.182254314E0,-6.604190469E-1,6.570691109E0,6.955024720E0
9.941064100E-2,-1.966900229E0,-3.254238665E-1,1.226560879E1,1.242657459E1
1.017862660E-1,2.675175667E0,-1.244267821E0,8.796015739E0,9.277643028E0
1.041618910E-1,-2.603390932E0,4.259224236E-1,9.547362328E0,9.905108867E0
1.065375160E-1,1.598405480E0,-1.756331801E0,1.212203979E1,1.235246738E1
1.089131930E-1,-5.742774606E-1,1.914258115E-2,7.341179848E0,7.363632432E0
1.112888180E-1,-3.110669553E-1,-1.301695466E0,1.346201992E1,1.352838328E1
1.136644430E-1,1.076770186E0,-3.637090325E-1,6.163911343E0,6.267816313E0
1.160400680E-1,-1.928615093E0,-7.704889178E-1,1.261017513E1,1.278005189E1
1.184156930E-1,2.670390129E0,-9.092726111E-1,7.853243828E0,8.344531068E0
1.207913180E-1,-2.455035925E0,2.440679073E-1,1.062891865E1,1.091149312E1
1.231669430E-1,2.158325911E0,-1.569691658E0,1.056191921E1,1.089387168E1
1.255425680E-1,-1.890329838E0,3.062812984E-1,8.044670105E0,8.269454167E0
1.279181930E-1,3.637090325E-1,-1.497906923E0,1.332802200E1,1.341686178E1
1.302938180E-1,3.349951804E-1,-1.387837082E-1,6.494120598E0,6.504235930E0
1.326694430E-1,-1.531406522E0,-9.619147182E-1,1.304088306E1,1.316567951E1
1.350451200E-1,1.947757602E0,-5.790630579E-1,6.896114826E0,7.189260977E0
1.374207450E-1,-2.210968018E0,-2.440679073E-1,1.163868904E1,1.184934729E1
1.397963700E-1,2.593819857E0,-1.239482164E0,9.198010445E0,9.636784403E0
1.421719950E-1,-2.474178553E0,4.211367965E-1,9.006584167E0,9.349731230E0
1.445476200E-1,1.191625714E0,-1.545763373E0,1.228953743E1,1.244355602E1
1.469232450E-1,-6.029912829E-1,2.392822690E-2,7.025327206E0,7.051198011E0
1.492988700E-1,-6.077769399E-1,-1.158126116E0,1.350509071E1,1.356827639E1
1.516744950E-1,1.296909928E0,-4.881358147E-1,6.652047157E0,6.794849764E0
1.540501200E-1,-2.143969059E0,-5.694918036E-1,1.227517986E1,1.247401158E1
1.564256930E-1,2.450250387E0,-9.523434043E-1,8.149953842E0,8.563435791E0
1.588013700E-1,-2.282752752E0,1.004985496E-1,1.005942631E1,1.031567340E1
1.611770470E-1,2.081755638E0,-1.708475351E0,1.092562866E1,1.125264219E1
1.635526720E-1,-1.507478237E0,3.828516304E-1,7.709674358E0,7.864994896E0
1.659282970E-1,-1.531406492E-1,-1.483550072E0,1.322273827E1,1.330658409E1
1.683039220E-1,6.795616150E-1,-2.823530734E-1,6.675975323E0,6.716410779E0
1.706795470E-1,-1.560120344E0,-1.048056364E0,1.305045509E1,1.318509673E1
1.730551720E-1,2.072184324E0,-7.082754970E-1,7.503891945E0,7.816904526E0
1.754307970E-1,-2.411965132E0,-2.057827413E-1,1.102134132E1,1.128405454E1
1.778064220E-1,2.517249346E0,-1.579262972E0,9.552147865E0,1.000370655E1
1.801820470E-1,-1.914258122E0,3.014956415E-1,8.595019341E0,8.810768482E0
1.825576720E-1,9.523434043E-1,-1.746760488E0,1.261496067E1,1.277087949E1
1.849332970E-1,-3.014956415E-1,3.349951655E-2,6.771687984E0,6.778479180E0
1.873089740E-1,-1.062413216E0,-1.339980721E0,1.334716511E1,1.345626570E1
1.896845990E-1,1.837687731E0,-5.359922647E-1,7.441678524E0,7.683941902E0
1.920602240E-1,-2.091326952E0,-6.508477330E-1,1.208854008E1,1.228535927E1
1.944358490E-1,2.383251429E0,-1.076770186E0,8.542376518E0,8.933729232E0
1.968114740E-1,-2.287538528E0,1.244267747E-1,9.494720459E0,9.767191568E0
1.991870990E-1,2.143969059E0,-1.885544300E0,1.135155106E1,1.170510965E1
2.015627240E-1,-9.571290612E-1,2.536391914E-1,7.207181931E0,7.274881460E0
2.039383490E-1,-4.259224236E-1,-1.368694544E0,1.345723438E1,1.353336218E1
2.063139740E-1,9.954141974E-1,-3.302095234E-1,6.675975323E0,6.757849825E0
2.086895990E-1,-1.655833244E0,-1.057627559E0,1.306481171E1,1.321172452E1
2.110652240E-1,2.330609322E0,-8.279166222E-1,8.293522835E0,8.654461667E0
2.134408490E-1,-2.340180635E0,-5.264209956E-2,1.064806080E1,1.090231239E1
2.158165260E-1,2.297109842E0,-1.603191137E0,9.987641335E0,1.037303788E1
2.181921510E-1,-1.512263894E0,1.722832322E-1,8.097311974E0,8.239119176E0
2.205677760E-1,8.470591903E-1,-1.641476393E0,1.296909904E1,1.309998031E1
2.229434010E-1,1.339980662E-1,5.742774159E-2,6.465406895E0,6.467050312E0
2.253190260E-1,-1.564906001E0,-1.177268744E0,1.339023590E1,1.353267564E1
2.276946510E-1,1.923829436E0,-5.838487148E-1,7.633104324E0,7.893432754E0
2.300702760E-1,-2.110469580E0,-4.929214716E-1,1.211725426E1,1.230954525E1
2.324459010E-1,2.306680918E0,-1.162911773E0,9.231510162E0,9.586131677E0
2.348215260E-1,-2.378465652E0,2.201396823E-1,8.977870941E0,9.290195207E0
2.371971510E-1,1.674975872E0,-1.808973908E0,1.178225899E1,1.203742321E1
2.395727760E-1,-4.881358147E-1,2.440679073E-1,6.853044033E0,6.874740594E0
2.419484530E-1,-7.465606928E-1,-1.397408366E0,1.345723438E1,1.355017565E1
2.443240780E-1,1.220339537E0,-2.057827413E-1,6.556334019E0,6.672112925E0
2.466997030E-1,-2.091326952E0,-8.949156404E-1,1.297867012E1,1.317650942E1
2.490753280E-1,2.517249346E0,-8.135597110E-1,8.796015739E0,9.185222728E0
2.514509010E-1,-2.531606436E0,-3.349951655E-2,1.029870892E1,1.060535519E1
2.538265780E-1,2.105684042E0,-1.502692580E0,1.062891865E1,1.093919110E1
2.562022030E-1,-1.478764415E0,2.009970993E-1,7.508677483E0,7.655545805E0
2.585778280E-1,5.790630579E-1,-1.655833244E0,1.310309696E1,1.321999424E1
2.609534530E-1,5.694918036E-1,-4.785645381E-2,6.087340832E0,6.114109057E0
2.633290780E-1,-1.828116536E0,-1.071984529E0,1.336152172E1,1.352854107E1
2.657047030E-1,2.120040894E0,-5.599204898E-1,7.647460938E0,7.955610796E0
2.680803800E-1,-2.206182480E0,-4.594219327E-1,1.182532978E1,1.203813665E1
2.704560050E-1,2.445464849E0,-1.234696507E0,9.882357597E0,1.025503610E1
2.728316300E-1,-2.292324066E0,1.483550072E-1,8.685946465E0,8.984565923E0
2.752072550E-1,1.335195065E0,-1.713261008E0,1.209332561E1,1.228684392E1
2.775828800E-1,-3.158525825E-1,-9.571290575E-3,6.379265308E0,6.387086999E0
2.799584530E-1,-6.556333899E-1,-1.244267821E0,1.356251907E1,1.363524775E1
2.823341300E-1,1.603191137E0,-4.019941986E-1,6.269195557E0,6.483412226E0
2.847097550E-1,-2.421536446E0,-6.125625968E-1,1.278724384E1,1.302891695E1
2.870853280E-1,2.421536446E0,-9.762716293E-1,8.853444099E0,9.230407221E0
2.894610050E-1,-2.388036966E0,-4.785645287E-3,1.020778179E1,1.048339413E1
2.918366300E-1,1.976471543E0,-1.646261930E0,1.115055370E1,1.144340273E1
2.942123070E-1,-1.521835208E0,1.483550072E-1,7.216753006E0,7.376958422E0
2.965879320E-1,1.579262912E-1,-1.502692580E0,1.314616776E1,1.323271523E1
2.989635570E-1,9.523434043E-1,-3.206382394E-1,5.871986866E0,5.957348118E0
3.013391820E-1,-1.828116536E0,-1.067198873E0,1.328495121E1,1.345254073E1
3.037148070E-1,2.249253273E0,-5.264210105E-1,7.532605648E0,7.878858243E0
3.060904320E-1,-2.660818815E0,-3.445664644E-1,1.139940739E1,1.171089969E1
3.084660570E-1,2.493321180E0,-1.339980721E0,1.033220863E1,1.071292369E1
3.108416820E-1,-2.163111687E0,3.828516230E-2,8.475378036E0,8.747145293E0
3.132173070E-1,1.014556766E0,-1.588834286E0,1.252403355E1,1.266511493E1
3.155929320E-1,-3.158525825E-1,-8.614161611E-2,6.192625046E0,6.201273110E0
3.179685570E-1,-9.667003751E-1,-1.339980721E0,1.332323647E1,1.342530029E1
3.203441820E-1,1.933400750E0,-5.120640397E-1,6.498906136E0,6.799708008E0
3.227198590E-1,-2.584248543E0,-5.551348329E-1,1.256231880E1,1.283738170E1
3.250954840E-1,2.359323025E0,-9.954141974E-1,8.791230202E0,9.156581405E0
3.274711090E-1,-2.550748825E0,-3.349951655E-2,9.944570541E0,1.026654397E1
3.298467340E-1,1.928615093E0,-1.679761529E0,1.176790142E1,1.204261844E1
3.322223590E-1,-1.287338614E0,-9.571290575E-3,7.197610378E0,7.311834754E0
3.345979840E-1,-1.244267747E-1,-1.354337573E0,1.319402409E1,1.326393546E1
3.369736090E-1,9.571290612E-1,-4.307080805E-1,5.804987907E0,5.899109263E0
3.393492340E-1,-1.718046665E0,-9.906286001E-1,1.334237862E1,1.348896202E1
3.417248590E-1,2.455035925E0,-8.231309652E-1,7.484749317E0,7.919988530E0
3.441004840E-1,-2.761317253E0,-4.785645287E-3,1.131805134E1,1.165002927E1
3.464761610E-1,2.316252232E0,-1.531406522E0,1.031785107E1,1.068495582E1
3.488517860E-1,-1.885544300E0,2.871387079E-2,8.647661209E0,8.850883921E0
3.512274110E-1,9.284151793E-1,-1.631905079E0,1.284945774E1,1.298590132E1
3.536030360E-1,-1.387837082E-1,-8.614161611E-2,6.259624004E0,6.261754864E0
3.559786610E-1,-1.052842021E0,-1.201196909E0,1.316530991E1,1.326185263E1
3.583542860E-1,2.239681959E0,-6.843472719E-1,6.580262184E0,6.984579936E0
3.607299110E-1,-2.239681959E0,-4.833501875E-1,1.241396427E1,1.262364098E1
3.631055360E-1,2.536391973E0,-1.076770186E0,8.824729919E0,9.244921656E0
3.654811610E-1,-2.632104874E0,2.105683982E-1,9.705288887E0,1.005807872E1
3.678567860E-1,1.885544300E0,-1.765903115E0,1.208854008E1,1.236149232E1
3.702324110E-1,-7.800601721E-1,4.785645287E-3,7.374679565E0,7.415821968E0
3.726080360E-1,-2.392822653E-1,-1.282552958E0,1.327059460E1,1.333457457E1
3.749837130E-1,9.906286001E-1,-4.354937077E-1,6.020341873E0,6.116822383E0
3.773593380E-1,-1.660618901E0,-9.092726111E-1,1.288295746E1,1.302132961E1
3.797349630E-1,2.756531715E0,-8.327022791E-1,7.747959614E0,8.265756974E0
3.821105880E-1,-2.603390932E0,1.052841991E-1,1.093998528E1,1.124597737E1
3.844862130E-1,2.306680918E0,-1.512263894E0,1.042313576E1,1.078190512E1
3.868618380E-1,-1.770688772E0,1.196411327E-1,8.374878883E0,8.560855625E0
3.892374630E-1,9.140582681E-1,-1.555334687E0,1.328016567E1,1.340214046E1
3.916130880E-1,9.571290761E-2,-2.153540403E-1,6.321837425E0,6.326228478E0
3.939887130E-1,-1.239482164E0,-1.014556766E0,1.309831142E1,1.319588586E1
3.963643910E-1,2.124826431E0,-6.604190469E-1,6.661618233E0,7.023403602E0
3.987400160E-1,-1.933400750E0,-4.546363056E-1,1.222732353E1,1.238758142E1
4.011156410E-1,2.603390932E0,-1.215553880E0,8.791230202E0,9.248834740E0
4.034912660E-1,-2.651247501E0,3.349951804E-1,9.580862045E0,9.946569892E0
4.058668910E-1,1.579262972E0,-1.746760488E0,1.206461143E1,1.229227777E1
4.082425160E-1,-7.226324677E-1,-9.092725813E-2,7.312466145E0,7.348647941E0
4.106181410E-1,-3.206382394E-1,-1.335195065E0,1.351944828E1,1.358900425E1
4.129937660E-1,1.043270707E0,-4.498506486E-1,6.211767673E0,6.314810924E0
4.153693910E-1,-2.024327993E0,-8.327022791E-1,1.257188988E1,1.276102316E1
4.177450160E-1,2.555534601E0,-9.475577474E-1,7.757531166E0,8.222403090E0
4.201206410E-1,-2.354537487E0,9.092725813E-2,1.081077290E1,1.106457975E1
4.224962660E-1,2.191825628E0,-1.674975872E0,1.039920712E1,1.075886390E1
4.248719430E-1,-1.966900229E0,2.775674164E-1,8.212167740E0,8.448990423E0
4.272475680E-1,5.024927258E-1,-1.617548108E0,1.324188042E1,1.334976995E1
4.296231930E-1,2.632105052E-1,-1.914258152E-1,6.685546398E0,6.693463547E0
4.319988180E-1,-1.368694544E0,-1.081555843E0,1.309352589E1,1.320922057E1
4.343744430E-1,1.885544300E0,-6.269195080E-1,6.829115868E0,7.112322329E0
4.367500680E-1,-2.139183521E0,-3.732803464E-1,1.168175983E1,1.188187515E1
4.391256930E-1,2.770888567E0,-1.263410330E0,9.049654961E0,9.548313150E0
4.415013180E-1,-2.426322222E0,3.110669553E-1,9.044869423E0,9.369816703E0
4.438769430E-1,1.430907965E0,-1.612762451E0,1.216511059E1,1.235469206E1
4.462525680E-1,-6.556333899E-1,1.914258115E-2,7.077969551E0,7.108296177E0
4.486281930E-1,-3.397808075E-1,-1.296909928E0,1.352423382E1,1.359052342E1
4.510038700E-1,1.277767301E0,-4.259224236E-1,6.570691109E0,6.707315471E0
4.533794950E-1,-1.957328916E0,-7.034898400E-1,1.249053383E1,1.266252225E1
4.557551200E-1,2.555534601E0,-8.757730722E-1,7.896314621E0,8.345628806E0
4.581307450E-1,-2.076970100E0,9.571290575E-3,1.032263660E1,1.052951674E1
4.605063700E-1,2.431107759E0,-1.674975872E0,1.053320503E1,1.093911502E1
4.628819950E-1,-1.579262972E0,4.546363056E-1,7.886743546E0,8.056146067E0
4.652576200E-1,3.397808075E-1,-1.564906001E0,1.319880962E1,1.329559917E1
4.676332450E-1,5.742774606E-1,-2.057827413E-1,6.618547440E0,6.646601489E0
4.700088700E-1,-1.153340459E0,-1.062413216E0,1.329930782E1,1.339143400E1
4.723844950E-1,2.062613010E0,-6.556333899E-1,7.259823799E0,7.575570551E0
4.747601720E-1,-2.163111687E0,-3.110669553E-1,1.144247818E1,1.164929705E1
4.771357970E-1,2.622533560E0,-1.344766378E0,9.001798630E0,9.471982763E0
4.795114220E-1,-1.981257200E0,2.967100143E-1,9.059226990E0,9.278093046E0
4.818870470E-1,1.507478237E0,-1.832902193E0,1.211725426E1,1.234746419E1
4.842626720E-1,-6.077769399E-1,1.962114573E-1,6.967899323E0,6.997107453E0
4.866382970E-1,-7.322037220E-1,-1.392622828E0,1.341894913E1,1.351087400E1
4.890139220E-1,1.507478237E0,-4.737788737E-1,7.092326164E0,7.266226495E0
4.913895470E-1,-1.952543259E0,-7.992027402E-1,1.245224857E1,1.262971277E1
4.937651720E-1,2.268395901E0,-9.379864931E-1,8.159524918E0,8.520756158E0
4.961407970E-1,-2.321038008E0,1.052841991E-1,1.008335495E1,1.034757697E1
4.985164220E-1,2.354537487E0,-1.808973908E0,1.065284634E1,1.105890449E1
5.008920470E-1,-1.502692580E0,3.254238665E-1,7.685746193E0,7.838027828E0
5.032677240E-1,7.178468257E-2,-1.483550072E0,1.329452229E1,1.337723427E1
5.056433490E-1,3.732803464E-1,-1.770688742E-1,6.465406895E0,6.478593823E0
5.080189740E-1,-1.349551916E0,-1.158126116E0,1.338066387E1,1.349832257E1
5.103945990E-1,2.057827473E0,-6.556333899E-1,7.733603001E0,8.029515827E0
5.127702240E-1,-2.306680918E0,-2.488535494E-1,1.133240795E1,1.156746190E1
5.151458490E-1,2.397608280E0,-1.306481123E0,9.241081238E0,9.636026195E0
5.175214740E-1,-2.038684845E0,2.392822653E-1,8.623732567E0,8.864663292E0
5.198970990E-1,1.536192179E0,-1.665404558E0,1.232303619E1,1.252959216E1
5.222727240E-1,-4.115654826E-1,2.057827413E-1,6.680760860E0,6.696588561E0
5.246483490E-1,-9.619147182E-1,-1.225125194E0,1.338066387E1,1.347101991E1
5.270239220E-1,1.579262972E0,-3.684946895E-1,7.020541668E0,7.205405275E0
5.293996510E-1,-1.775474429E0,-7.226324677E-1,1.263888931E1,1.278342795E1
5.317752760E-1,2.435893536E0,-8.374879360E-1,8.513663292E0,8.894797693E0
5.341509010E-1,-2.316252232E0,1.866401732E-1,9.877572060E0,1.014723059E1
5.365265260E-1,2.306680918E0,-1.670190215E0,1.064806080E1,1.102231877E1
5.389021510E-1,-1.019342422E0,3.158525825E-1,7.604390144E0,7.678904303E0
5.412777760E-1,3.828516304E-1,-1.507478237E0,1.318445301E1,1.327587538E1
5.436534010E-1,5.934200287E-1,6.221338734E-2,6.293123722E0,6.321346693E0
5.460290260E-1,-1.560120344E0,-1.119840980E0,1.326102352E1,1.339935686E1
5.484045990E-1,2.388036966E0,-5.934200287E-1,8.035098076E0,8.403431976E0
5.507802760E-1,-2.110469580E0,-3.876372576E-1,1.141376400E1,1.161371401E1
5.531559530E-1,2.397608280E0,-1.215553880E0,9.619147301E0,9.987697006E0
5.555315780E-1,-2.029113531E0,2.392822653E-1,8.523234367E0,8.764706601E0
5.579072030E-1,1.540977836E0,-1.842473388E0,1.226082325E1,1.249388281E1
5.602828280E-1,-1.722832322E-1,2.009970993E-1,6.513263226E0,6.518640901E0
5.626584010E-1,-9.523434043E-1,-1.253839016E0,1.355773354E1,1.364885376E1
5.650340780E-1,1.507478237E0,-3.780659735E-1,6.728617191E0,6.905773948E0
5.674097030E-1,-1.938186288E0,-8.901300430E-1,1.276810169E1,1.294501133E1
5.697853280E-1,2.469393015E0,-8.853443861E-1,8.953942299E0,9.330317210E0
5.721609530E-1,-2.464607239E0,-1.435693540E-2,9.920642853E0,1.022221354E1
5.745365780E-1,2.062613010E0,-1.636690736E0,1.078684425E1,1.110356420E1
5.769122030E-1,-1.268195987E0,7.657032460E-2,7.336394310E0,7.445593700E0
5.792878800E-1,3.924229145E-1,-1.493121386E0,1.331845093E1,1.340763000E1
5.816635050E-1,5.216353536E-1,-1.435693651E-1,6.044270039E0,6.068436034E0
5.840391300E-1,-1.890329838E0,-9.571290612E-1,1.340459251E1,1.357101851E1
5.864147550E-1,2.057827473E0,-6.460621357E-1,7.776673794E0,8.070235776E0
5.887903800E-1,-2.215753794E0,-4.259224236E-1,1.183490086E1,1.204806429E1
5.911659530E-1,2.254039049E0,-1.272981644E0,9.628718376E0,9.970626453E0
5.935416300E-1,-2.445464849E0,2.105683982E-1,8.662017822E0,9.003065596E0
5.959172550E-1,1.301695466E0,-1.689332843E0,1.210289669E1,1.228935982E1
5.982928800E-1,-3.445664644E-1,4.307080805E-2,6.470192432E0,6.479503936E0
6.006685050E-1,-8.949156404E-1,-1.229910851E0,1.353859043E1,1.362376547E1
6.030441300E-1,1.406979680E0,-2.727817893E-1,6.508477688E0,6.664404215E0
6.054197550E-1,-2.459821701E0,-7.944171429E-1,1.263410378E1,1.289582877E1
6.077954320E-1,2.493321180E0,-8.518448472E-1,9.064012527E0,9.439206177E0
6.101710570E-1,-2.435893536E0,-6.221338734E-2,1.008335495E1,1.037359604E1
6.125466820E-1,1.990828395E0,-1.493121386E0,1.097348499E1,1.125211900E1
6.149223070E-1,-1.507478237E0,1.962114573E-1,7.278966427E0,7.436016529E0
6.172979320E-1,3.541377485E-1,-1.555334687E0,1.303609753E1,1.313332853E1
6.196735570E-1,7.369893789E-1,9.571290575E-3,6.029912949E0,6.074791776E0
6.220491820E-1,-1.737189293E0,-1.038485050E0,1.328495121E1,1.343823673E1
6.244248070E-1,2.091326952E0,-4.211367965E-1,7.508677483E0,7.805846665E0
6.268004320E-1,-2.383251429E0,-3.876372576E-1,1.173440266E1,1.198024857E1
6.291760570E-1,2.435893536E0,-1.071984529E0,9.939785004E0,1.028990059E1
6.315517340E-1,-2.373680115E0,1.674975902E-1,8.676374435E0,8.996770869E0
6.339273590E-1,1.282552958E0,-1.560120344E0,1.212203979E1,1.228913204E1
6.363029840E-1,-4.594219327E-1,6.699903309E-2,6.302694798E0,6.319772076E0
6.386786090E-1,-6.508477330E-1,-1.167697430E0,1.352423382E1,1.359014424E1
6.410542340E-1,1.469193101E0,-3.828516304E-1,6.192625046E0,6.376026090E0
6.434298590E-1,-2.493321180E0,-6.077769399E-1,1.289252853E1,1.314546824E1
6.458054840E-1,2.330609322E0,-8.279166222E-1,8.666803360E0,9.012805680E0
6.481811090E-1,-2.440679073E0,-8.614161611E-2,1.045663452E1,1.073804173E1
6.505567340E-1,2.005185366E0,-1.531406522E0,1.107398319E1,1.135777610E1
6.529323590E-1,-1.789831281E0,1.627119333E-1,7.532605648E0,7.744037644E0
6.553079840E-1,2.679961324E-1,-1.469193101E0,1.294995594E1,1.303578571E1
6.576836610E-1,5.551348329E-1,-2.392822653E-1,5.871986866E0,5.903021298E0
6.600592860E-1,-1.651047587E0,-1.052842021E0,1.348116302E1,1.362263524E1
6.624349110E-1,2.072184324E0,-5.503492355E-1,7.125825882E0,7.441386071E0
6.648105360E-1,-2.746960402E0,-3.637090325E-1,1.192582798E1,1.224350639E1
6.671861610E-1,2.388036966E0,-1.301695466E0,9.848857880E0,1.021749153E1
6.695617860E-1,-2.373680115E0,2.392822690E-2,9.131011009E0,9.434526586E0
6.719374110E-1,1.344766378E0,-1.727617979E0,1.230867958E1,1.250186600E1
6.743130360E-1,-7.657032609E-1,-3.349951655E-2,6.403193474E0,6.448899934E0
6.766886610E-1,-6.221339107E-1,-1.402194023E0,1.332323647E1,1.341125753E1
6.790642860E-1,1.617548108E0,-4.546363056E-1,6.278766632E0,6.499697414E0
6.814399630E-1,-2.325823545E0,-8.183453679E-1,1.288774300E1,1.312147339E1
6.838155880E-1,2.440679073E0,-7.704889178E-1,8.413164139E0,8.793855715E0
6.861911610E-1,-2.694318295E0,-1.627119333E-1,1.054756260E1,1.088746541E1
6.885668380E-1,2.225325108E0,-1.603191137E0,1.127019501E1,1.159912019E1
6.909424630E-1,-1.713261008E0,-9.571290575E-3,7.680960655E0,7.869721182E0
6.933180880E-1,3.972085714E-1,-1.416550994E0,1.315573883E1,1.323774360E1
6.956937130E-1,2.919243574E-1,-2.105683982E-1,5.766702652E0,5.777925091E0
6.980693380E-1,-1.330409408E0,-1.129412293E0,1.332802200E1,1.344179050E1
7.004449630E-1,2.220539331E0,-6.221339107E-1,6.972685337E0,7.344125975E0
7.028205880E-1,-2.684746981E0,-2.249253243E-1,1.202632618E1,1.232440583E1
7.051962130E-1,2.421536446E0,-1.205982566E0,9.499505997E0,9.877188208E0
7.075718910E-1,-2.378465652E0,1.914258115E-2,9.269794464E0,9.570086452E0
7.099475160E-1,1.588834286E0,-1.545763373E0,1.242353535E1,1.261974680E1
7.123231410E-1,-8.566305041E-1,3.349951655E-2,6.551548481E0,6.607399302E0
7.146987660E-1,-5.742774606E-1,-1.115055323E0,1.328016567E1,1.333926322E1
7.170743910E-1,1.368694544E0,-4.163511395E-1,5.881557941E0,6.053048558E0
7.194500160E-1,-1.986042738E0,-6.987041831E-1,1.312702465E1,1.329478580E1
7.218256410E-1,2.431107759E0,-6.939185858E-1,7.939385414E0,8.332205512E0
7.242012660E-1,-2.852244616E0,2.105683982E-1,1.070548820E1,1.108093480E1
7.265768910E-1,2.210968018E0,-1.502692580E0,1.091127110E1,1.123397977E1
7.289525160E-1,-1.627119422E0,1.770688742E-1,8.102097511E0,8.265764035E0
7.313281410E-1,5.934200287E-1,-1.383051515E0,1.315095329E1,1.323678780E1
7.337038180E-1,6.221338734E-2,-5.742774159E-2,5.934200287E0,5.934804251E0
7.360794430E-1,-1.296909928E0,-1.043270707E0,1.316052437E1,1.326536056E1
7.384550680E-1,2.354537487E0,-5.264210105E-1,6.809973240E0,7.224728465E0
7.408306930E-1,-2.407179594E0,-2.536391914E-1,1.200239849E1,1.224403593E1
7.432063180E-1,2.498106956E0,-1.019342422E0,9.198010445E0,9.585561720E0
7.455819430E-1,-2.612962246E0,2.105683982E-1,9.265008926E0,9.628722717E0
7.479575680E-1,1.761117458E0,-1.564906001E0,1.243789196E1,1.265905296E1
7.503331930E-1,-7.944171429E-1,-1.914258115E-2,6.963113785E0,7.008310682E0
7.527088180E-1,-3.158525825E-1,-1.081555843E0,1.333280754E1,1.338033194E1
7.550844430E-1,1.143769264E0,-3.541377485E-1,5.824130535E0,5.945932910E0
7.574600680E-1,-1.741974831E0,-8.805587292E-1,1.285902882E1,1.300632470E1
7.598357450E-1,2.708675146E0,-7.274180651E-1,7.824530125E0,8.311999143E0
7.622113700E-1,-2.641676188E0,1.435693651E-1,1.077727318E1,1.109723760E1
7.645869950E-1,2.277967215E0,-1.430907965E0,1.049970531E1,1.083883960E1
7.669626200E-1,-1.741974831E0,1.531406492E-1,8.274380684E0,8.457145149E0
7.693382450E-1,9.619147182E-1,-1.416550994E0,1.326102352E1,1.337111220E1
7.717138700E-1,4.785645287E-3,-1.627119333E-1,6.111268997E0,6.113436581E0
7.740894950E-1,-1.124626637E0,-9.858429432E-1,1.315573883E1,1.324047339E1
7.764651200E-1,2.091326952E0,-5.886343718E-1,6.436692715E0,6.793463914E0
7.788407450E-1,-1.990828395E0,-3.732803464E-1,1.229910851E1,1.246478263E1
7.812163700E-1,2.526820660E0,-1.033699393E0,8.676374435E0,9.095758925E0
7.835919950E-1,-2.732603550E0,4.019941986E-1,9.590433121E0,9.980236918E0
7.859676720E-1,1.713261008E0,-1.684547186E0,1.193061352E1,1.217014796E1
7.883432970E-1,-9.284151793E-1,8.614161611E-2,7.350750923E0,7.409650077E0
7.907189220E-1,-2.153540403E-1,-1.229910851E0,1.345723438E1,1.351503664E1
7.930944950E-1,6.795616150E-1,-2.584248483E-1,5.938985825E0,5.983321821E0
7.954701720E-1,-1.880758643E0,-7.800601721E-1,1.271067429E1,1.287272262E1
7.978457970E-1,2.531606436E0,-7.752745152E-1,7.499105930E0,7.952777595E0
8.002214220E-1,-2.531606436E0,1.196411327E-1,1.109312534E1,1.137896195E1
8.025970470E-1,2.191825628E0,-1.411765337E0,9.982855797E0,1.031768340E1
8.049726720E-1,-2.340180635E0,2.823530734E-1,8.494520187E0,8.815500092E0
8.073482970E-1,8.518448472E-1,-1.569691658E0,1.311266804E1,1.323373094E1
8.097239740E-1,-2.153540403E-1,-8.614161611E-2,6.608976364E0,6.613045163E0
8.120995990E-1,-1.153340459E0,-1.000199914E0,1.320359516E1,1.329155820E1
8.144752240E-1,1.536192179E0,-5.407779217E-1,6.455835342E0,6.658088099E0
8.168508490E-1,-2.148754835E0,-5.551348329E-1,1.214118195E1,1.234235071E1
8.192264740E-1,2.574677229E0,-1.004985452E0,8.662017822E0,9.092277566E0
8.216020990E-1,-2.756531715E0,3.062812984E-1,9.705288887E0,1.009380541E1
8.239777240E-1,1.679761529E0,-1.655833244E0,1.159561825E1,1.183307843E1
8.263533490E-1,-1.253839016E0,1.004985496E-1,7.561319351E0,7.665230758E0
8.287289740E-1,2.392822690E-2,-1.387837172E0,1.366301727E1,1.373334284E1
8.311045990E-1,5.647061467E-1,-4.067798555E-1,6.216553211E0,6.255389413E0
8.334802240E-1,-1.832902193E0,-8.327022791E-1,1.281117249E1,1.296838710E1
8.358559010E-1,2.292324066E0,-7.704889178E-1,7.384250641E0,7.770171190E0
8.382315260E-1,-2.196611166E0,-1.196411327E-1,1.130848026E1,1.152046616E1
8.406071510E-1,2.455035925E0,-1.517049551E0,9.714859962E0,1.013445336E1
8.429827240E-1,-2.402393818E0,3.637090325E-1,8.709874153E0,9.042438171E0
8.453584010E-1,9.379864931E-1,-1.703689694E0,1.282074356E1,1.296741465E1
8.477340260E-1,-2.584248483E-1,-1.866401732E-1,6.929614544E0,6.936942820E0
8.501095990E-1,-7.944171429E-1,-1.229910851E0,1.350509071E1,1.358422815E1
8.524852760E-1,1.416550994E0,-5.838487148E-1,6.585047722E0,6.760942948E0
8.548609010E-1,-2.129612207E0,-6.269195080E-1,1.229432297E1,1.249314426E1
8.572365260E-1,2.675175667E0,-1.148554921E0,8.231309891E0,8.730991111E0
8.596121510E-1,-2.268395901E0,2.392822653E-1,1.015513897E1,1.040815658E1
8.619878280E-1,2.110469580E0,-1.789831281E0,1.112183952E1,1.146092894E1
8.643634530E-1,-1.521835208E0,2.488535494E-1,7.685746193E0,7.838916062E0
8.667390780E-1,1.914258152E-1,-1.550549030E0,1.354337597E1,1.363319034E1
8.691147030E-1,6.652047038E-1,-3.158525825E-1,6.637690067E0,6.678412205E0
8.714903280E-1,-1.416550994E0,-1.014556766E0,1.299781227E1,1.311407892E1
8.738659530E-1,2.139183521E0,-7.465606928E-1,7.269395351E0,7.614300216E0
8.762415780E-1,-2.086541414E0,-3.110669553E-1,1.132762241E1,1.152238896E1
8.786172030E-1,2.761317253E0,-1.378265858E0,9.480362892E0,9.970043647E0
8.809928280E-1,-2.158325911E0,3.397808075E-1,8.767302513E0,9.035453231E0
8.833684530E-1,1.320838094E0,-1.674975872E0,1.254796219E1,1.272798148E1
8.857441300E-1,-4.259224236E-1,-1.435693540E-2,6.958328247E0,6.971366296E0
8.881197550E-1,-3.780659735E-1,-1.263410330E0,1.367258835E1,1.373604061E1
8.904953800E-1,1.368694544E0,-5.455635786E-1,6.652047157E0,6.813273498E0
8.928710050E-1,-1.966900229E0,-6.604190469E-1,1.247617722E1,1.264752338E1
8.952466300E-1,2.498106956E0,-9.092726111E-1,8.001599312E0,8.431660963E0
8.976222550E-1,-2.158325911E0,-1.435693540E-2,1.027478027E1,1.049903265E1
8.999978280E-1,2.359323025E0,-1.641476393E0,1.068634605E1,1.106611232E1
9.023735050E-1,-1.708475351E0,2.967100143E-1,7.843672752E0,8.033064615E0
9.047491300E-1,2.392822653E-1,-1.588834286E0,1.324666595E1,1.334375544E1
9.071247550E-1,3.924229145E-1,-2.344966233E-1,6.652047157E0,6.667736932E0
9.095003800E-1,-1.282552958E0,-1.086341500E0,1.329452229E1,1.340035084E1
9.118760570E-1,1.895115495E0,-7.082754970E-1,7.293323517E0,7.568730728E0
9.142516820E-1,-2.268395901E0,-4.115654826E-1,1.147597694E1,1.170525749E1
9.166273070E-1,2.493321180E0,-1.435693622E0,8.997013092E0,9.445851537E0
9.190029320E-1,-2.158325911E0,2.967100143E-1,9.217152596E0,9.471130320E0
9.213785570E-1,1.540977836E0,-1.914258122E0,1.198325539E1,1.223263694E1
9.237541820E-1,-8.614161611E-1,1.866401732E-1,7.097112179E0,7.151634333E0
9.261298070E-1,-5.551348329E-1,-1.469193101E0,1.357209015E1,1.366266204E1
9.285054320E-1,1.258624673E0,-4.929214716E-1,6.948757172E0,7.079006560E0
9.308810570E-1,-1.875972986E0,-1.024128079E0,1.263888931E1,1.281833203E1
9.332566820E-1,2.210968018E0,-8.949156404E-1,8.068597794E0,8.413769900E0
9.356323070E-1,-2.244467735E0,-1.435693651E-1,1.046620655E1,1.070512621E1
9.380079840E-1,2.498106956E0,-1.799402595E0,1.031785107E1,1.076737845E1
9.403836090E-1,-1.737189293E0,2.823530734E-1,7.972885132E0,8.164829896E0
9.427592340E-1,5.982056856E-1,-1.612762451E0,1.318923855E1,1.330093479E1
9.451348590E-1,1.339980662E-1,-2.201396823E-1,6.422336102E0,6.427504801E0
9.475104840E-1,-1.028913736E0,-1.292124271E0,1.359123230E1,1.369123238E1
9.498861090E-1,1.919043779E0,-7.322037220E-1,7.288537979E0,7.572426110E0
9.522617340E-1,-2.139183521E0,-6.125625968E-1,1.186361504E1,1.207048884E1
9.546373590E-1,2.498106956E0,-1.239482164E0,8.733802795E0,9.168214966E0
9.570129840E-1,-2.124826431E0,9.571290575E-3,9.336793900E0,9.575526058E0
9.593886090E-1,2.072184324E0,-1.828116536E0,1.168654537E1,1.200880097E1
9.617642860E-1,-9.667003751E-1,1.148554832E-1,7.111468792E0,7.177791427E0
9.641399110E-1,-4.067798555E-1,-1.502692580E0,1.351466274E1,1.360403116E1
9.665154320E-1,1.033699393E0,-4.450650215E-1,6.723831654E0,6.817369684E0
9.688911610E-1,-1.521835208E0,-1.129412293E0,1.310309696E1,1.323943747E1
9.712667860E-1,2.258824587E0,-8.901300430E-1,8.049455643E0,8.407636776E0
9.736424110E-1,-2.277967215E0,-2.153540403E-1,1.076770210E1,1.100812975E1
9.760180360E-1,2.531606436E0,-1.689332843E0,9.863214493E0,1.032210622E1
9.783936610E-1,-1.627119422E0,2.009970993E-1,8.408378601E0,8.566723303E0
9.807692860E-1,1.033699393E0,-1.866401672E0,1.268196011E1,1.286017503E1
9.831449110E-1,-1.292124242E-1,1.052841991E-1,6.661618233E0,6.663703031E0
9.855205880E-1,-1.038485050E0,-1.421336651E0,1.345244884E1,1.356713046E1
9.878962130E-1,1.818545222E0,-6.029912829E-1,7.369893551E0,7.614856280E0
9.902718380E-1,-1.899901152E0,-8.422735929E-1,1.224168110E1,1.241683556E1
9.926474630E-1,2.421536446E0,-1.100698471E0,8.714659691E0,9.111567890E0
9.950230880E-1,-2.287538528E0,6.699903309E-2,9.619147301E0,9.887634509E0
9.973987130E-1,2.254039049E0,-2.000399828E0,1.120798111E1,1.160608168E1
9.997743380E-1,-1.014556766E0,2.009970993E-1,7.355536938E0,7.427896668E0
1.002149963E0,-2.871387079E-2,-1.584048629E0,1.346201992E1,1.355492585E1
1.004525588E0,6.843472719E-1,-3.302095234E-1,6.398407936E0,6.443368190E0
1.006901213E0,-1.473978758E0,-1.249053478E0,1.331845093E1,1.345785581E1
1.009276838E0,2.292324066E0,-7.561319470E-1,8.111668587E0,8.463193984E0
1.011652516E0,-2.220539331E0,-4.211367965E-1,1.118883896E1,1.141482669E1
1.014028141E0,2.402393818E0,-1.411765337E0,9.595218658E0,9.991636429E0
1.016403713E0,-1.957328916E0,6.221338734E-2,8.489734650E0,8.712669018E0
1.018779391E0,1.564906001E0,-1.861616015E0,1.246660614E1,1.270160673E1
1.021155016E0,-3.445664644E-1,7.178468257E-2,6.608976364E0,6.618341761E0
1.023530641E0,-9.619147182E-1,-1.335195065E0,1.357209015E1,1.367149066E1
1.025906266E0,1.483550072E0,-5.072783828E-1,6.948757172E0,7.123445683E0
1.028281891E0,-1.780260086E0,-9.379864931E-1,1.277288723E1,1.293042122E1
1.030657516E0,2.287538528E0,-9.667003751E-1,8.652446747E0,9.001787425E0
1.033033141E0,-2.435893536E0,4.785645381E-2,1.001156998E1,1.030375664E1
1.035408766E0,2.177468538E0,-1.737189293E0,1.060020447E1,1.096008808E1
1.037784443E0,-1.282552958E0,1.818545163E-1,7.700103283E0,7.808303511E0
1.040160068E0,4.833501875E-1,-1.665404558E0,1.317488194E1,1.328851812E1
1.042535693E0,2.823530734E-1,4.785645287E-3,6.288337708E0,6.294675312E0
1.044911318E0,-1.627119422E0,-1.177268744E0,1.328495121E1,1.343589997E1
1.047286943E0,2.076970100E0,-6.843472719E-1,7.838887215E0,8.138199356E0
1.049662568E0,-2.091326952E0,-5.024927258E-1,1.168654537E1,1.188282332E1
1.052038193E0,2.344966173E0,-1.205982566E0,9.394221306E0,9.757287238E0
1.054413818E0,-2.297109842E0,2.057827413E-1,8.738588333E0,9.037808707E0
1.056789443E0,1.732403636E0,-1.866401672E0,1.184925747E1,1.211980116E1
1.059165068E0,-4.498506486E-1,2.201396823E-1,6.853044033E0,6.871320077E0
1.061540745E0,-6.699903607E-1,-1.416550994E0,1.347637749E1,1.356717561E1
1.063916370E0,1.091127157E0,-2.919243574E-1,6.513263226E0,6.610474729E0
1.066291995E0,-1.923829436E0,-1.057627559E0,1.292602825E1,1.311113657E1
1.068667620E0,2.416750908E0,-7.752745152E-1,8.676374435E0,9.039978367E0
1.071043245E0,-2.421536446E0,-1.531406492E-1,1.039920712E1,1.067852047E1
1.073418870E0,2.196611166E0,-1.536192179E0,1.032263660E1,1.066498071E1
1.075794495E0,-1.684547186E0,1.435693651E-1,7.700103283E0,7.883520911E0
1.078170120E0,9.810572863E-1,-1.732403636E0,1.300259781E1,1.315413416E1
1.080545745E0,1.627119333E-1,-6.221338734E-2,6.111268997E0,6.113751257E0
1.082921370E0,-1.435693622E0,-1.134197950E0,1.348116302E1,1.360475570E1
1.085296995E0,1.813759565E0,-5.982056856E-1,7.235895634E0,7.483699581E0
1.087672672E0,-1.928615093E0,-8.231309652E-1,1.230867958E1,1.248601993E1
1.090048297E0,2.440679073E0,-1.100698471E0,9.255437851E0,9.634914700E0
1.092423922E0,-2.373680115E0,1.435693540E-2,9.365508080E0,9.661640906E0
1.094799547E0,1.981257200E0,-1.832902193E0,1.132283688E1,1.164008357E1
1.097175172E0,-7.657032609E-1,1.914258115E-2,6.972685337E0,7.014628196E0
1.099550797E0,1.244267747E-1,-1.497906923E0,1.347637749E1,1.355993943E1
1.101926422E0,9.714859724E-1,-2.632105052E-1,6.154339790E0,6.236101588E0
1.104302047E0,-1.880758643E0,-1.091127157E0,1.315573883E1,1.333421448E1
1.106677672E0,2.426322222E0,-7.657032609E-1,8.236095428E0,8.620128126E0
1.109053349E0,-2.048256159E0,-3.972085714E-1,1.127976608E1,1.147110504E1
1.111428922E0,2.421536446E0,-1.421336651E0,9.920642853E0,1.031034390E1
1.113804599E0,-2.029113531E0,1.770688742E-1,8.226524353E0,8.474925253E0
1.116180224E0,1.406979680E0,-1.804188251E0,1.240917778E1,1.261833508E1
1.118555849E0,1.483550072E-1,9.092725813E-2,6.364908218E0,6.367286204E0
1.120931474E0,-9.332008362E-1,-1.282552958E0,1.342852020E1,1.352186972E1
1.123307099E0,1.655833244E0,-3.014956415E-1,6.814758778E0,7.019517117E0
1.125682724E0,-2.053041935E0,-8.087740541E-1,1.251446247E1,1.270751225E1
1.128058349E0,2.622533560E0,-8.614161611E-1,9.193224907E0,9.598703260E0
1.130433974E0,-2.330609322E0,1.914258115E-2,9.820143700E0,1.009293458E1
1.132809599E0,2.076970100E0,-1.517049551E0,1.099741268E1,1.129417238E1
1.135185276E0,-1.186840057E0,2.344966233E-1,7.216753006E0,7.317451875E0
1.137560901E0,5.790630579E-1,-1.540977836E0,1.324188042E1,1.334381219E1
1.139936526E0,7.657032609E-1,-3.828516230E-2,5.919843197E0,5.969280586E0
1.142312151E0,-1.746760488E0,-8.949156404E-1,1.344287777E1,1.358539690E1
1.144687776E0,2.172683001E0,-5.072783828E-1,7.575676441E0,7.897389209E0
1.147063401E0,-2.043470621E0,-4.354937077E-1,1.176790142E1,1.195194255E1
1.149439026E0,2.483749866E0,-1.143769264E0,9.887143135E0,1.025830497E1
1.151814651E0,-2.196611166E0,1.818545163E-1,8.671588898E0,8.947325058E0
1.154190276E0,1.545763373E0,-1.584048629E0,1.199282742E1,1.219534763E1
1.156565901E0,-3.062812984E-1,9.571290575E-3,6.436692715E0,6.443982693E0
1.158941578E0,-3.828516304E-1,-1.186840057E0,1.357209015E1,1.362926248E1
1.161317151E0,1.502692580E0,-3.493520916E-1,6.245266914E0,6.433000133E0
1.163692828E0,-2.153540373E0,-7.513462901E-1,1.295952702E1,1.315870806E1
1.166068453E0,2.550748825E0,-8.757730722E-1,8.662017822E0,9.072146978E0
1.168444078E0,-2.206182480E0,-1.052841991E-1,1.067198944E1,1.089815051E1
1.170819703E0,2.297109842E0,-1.555334687E0,1.073898792E1,1.109151213E1
1.173195328E0,-1.674975872E0,1.866401732E-1,7.709674358E0,7.891733488E0
1.175570953E0,7.322037220E-1,-1.651047587E0,1.294995594E1,1.307529882E1
1.177946578E0,5.838487148E-1,-1.722832322E-1,5.953342915E0,5.984384070E0
1.180322203E0,-1.392622828E0,-1.153340459E0,1.348116302E1,1.360188770E1
1.182697828E0,2.048256159E0,-4.737788737E-1,7.116254330E0,7.420302918E0
1.185073453E0,-2.383251429E0,-6.125625968E-1,1.200718403E1,1.225673646E1
1.187449130E0,2.536391973E0,-1.115055323E0,9.748359680E0,1.013445357E1
1.189824703E0,-2.364108801E0,-3.349951655E-2,9.178867340E0,9.478488186E0
1.192200380E0,1.627119422E0,-1.612762451E0,1.182054424E1,1.204050607E1
1.194576005E0,-9.379864931E-1,5.264209956E-2,6.675975323E0,6.741753211E0
1.196951630E0,-2.344966233E-1,-1.421336651E0,1.324666595E1,1.332476437E1
1.199327203E0,1.201196909E0,-2.440679073E-1,6.034698486E0,6.157924080E0
1.201702880E0,-2.292324066E0,-9.092726111E-1,1.302174091E1,1.325319821E1
1.204078505E0,2.196611166E0,-6.508477330E-1,8.049455643E0,8.369136128E0
1.206454130E0,-2.555534601E0,-2.871387303E-1,1.097827053E1,1.127544365E1
1.208829755E0,2.210968018E0,-1.316052437E0,1.067198944E1,1.097778357E1
1.211205432E0,-2.225325108E0,7.178468257E-2,7.972885132E0,8.277929826E0
1.213581057E0,7.178468108E-1,-1.517049551E0,1.265803146E1,1.276880981E1
1.215956682E0,-1.818545163E-1,-1.387837082E-1,5.905486107E0,5.909915240E0
1.218332307E0,-1.043270707E0,-1.129412293E0,1.355773354E1,1.364463721E1
1.220707932E0,1.660618901E0,-4.785645306E-1,6.431907177E0,6.660038219E0
1.223083557E0,-2.684746981E0,-4.354937077E-1,1.255274773E1,1.284402572E1
1.225459182E0,2.330609322E0,-9.954141974E-1,9.054440498E0,9.402418943E0
1.227834807E0,-2.450250387E0,-3.828516230E-2,9.930213928E0,1.022811524E1
1.230210432E0,1.799402595E0,-1.593619823E0,1.149990559E1,1.174841701E1
1.232586057E0,-1.536192179E0,1.579262912E-1,7.106683254E0,7.272535596E0
1.234961682E0,-1.435693540E-2,-1.406979680E0,1.316052437E1,1.323552793E1
1.237337359E0,9.092726111E-1,-3.397808075E-1,5.766702652E0,5.847827559E0
1.239712984E0,-1.799402595E0,-9.858429432E-1,1.339023590E1,1.354651813E1
1.242088609E0,2.277967215E0,-6.029912829E-1,7.479963779E0,7.842358782E0
1.244464234E0,-2.694318295E0,-2.679961324E-1,1.152383423E1,1.183764877E1
1.246839859E0,2.426322222E0,-1.344766378E0,1.028435135E1,1.065191620E1
1.249215484E0,-2.033899307E0,-2.392822690E-2,8.733802795E0,8.967532003E0
1.251591109E0,1.287338614E0,-1.665404558E0,1.243789196E1,1.261475206E1
1.253966734E0,-4.259224236E-1,-5.264209956E-2,6.388836384E0,6.403234451E0
1.256342359E0,-5.072783828E-1,-1.387837172E0,1.329452229E1,1.337638764E1
1.258718036E0,1.866401672E0,-4.594219327E-1,6.336194515E0,6.621320461E0
1.261093661E0,-2.225325108E0,-7.561319470E-1,1.283988667E1,1.305321788E1
1.263469286E0,2.541177750E0,-8.805587292E-1,8.494520187E0,8.910097712E0
1.265844911E0,-2.435893536E0,-1.531406492E-1,1.042313576E1,1.070508236E1
1.268220536E0,2.392822742E0,-1.569691658E0,1.135633659E1,1.171135831E1
1.270596109E0,-1.497906923E0,-1.435693540E-2,7.580461979E0,7.727052160E0
1.272971786E0,5.886343718E-1,-1.459621787E0,1.307438278E1,1.316876879E1
1.275347411E0,4.929214716E-1,-2.823530734E-1,5.723631859E0,5.751752471E0
1.277723036E0,-1.062413216E0,-1.158126116E0,1.343330669E1,1.352492908E1
1.280098661E0,2.373680115E0,-6.939185858E-1,6.905686378E0,7.335147214E0
1.282474286E0,-2.531606436E0,-2.297109663E-1,1.207418346E1,1.233886966E1
1.284849911E0,2.517249346E0,-1.234696507E0,9.470791817E0,9.877090532E0
1.287225588E0,-2.167897224E0,-2.871387079E-2,9.303294182E0,9.552585278E0
1.289601213E0,1.799402595E0,-1.617548108E0,1.224646664E1,1.248319898E1
1.291976838E0,-9.188438654E-1,1.435693540E-2,6.762116909E0,6.824273241E0
1.294352463E0,-2.775674164E-1,-1.215553880E0,1.313181114E1,1.319087104E1
1.296728088E0,1.316052437E0,-4.546363056E-1,5.876772404E0,6.039465380E0
1.299103713E0,-1.847259045E0,-8.231309652E-1,1.317966747E1,1.333392460E1
1.301479338E0,2.364108801E0,-7.274180651E-1,7.805387497E0,8.187931451E0
1.303854963E0,-2.809173822E0,6.699903309E-2,1.089691448E1,1.125338579E1
1.306230588E0,2.230110645E0,-1.459621787E0,1.064327526E1,1.097192770E1
1.308606266E0,-1.890329838E0,1.148554832E-1,8.336593628E0,8.548995964E0
1.310981891E0,8.709874153E-1,-1.469193101E0,1.289731407E1,1.300991382E1
1.313357516E0,-2.871387303E-1,-8.614161611E-2,5.871986866E0,5.879634239E0
1.315733141E0,-1.119840980E0,-1.100698471E0,1.327538013E1,1.336792051E1
1.318108766E0,2.024327993E0,-4.929214716E-1,6.503692150E0,6.829266943E0
1.320484391E0,-2.435893536E0,-4.498506486E-1,1.234217930E1,1.258830142E1
1.322860016E0,2.435893536E0,-8.709874153E-1,8.815158844E0,9.186904911E0
1.325235641E0,-2.708675146E0,9.571290761E-2,9.729216576E0,1.009968995E1
1.327611213E0,2.029113531E0,-1.617548108E0,1.188754272E1,1.216747450E1
1.329986891E0,-1.311266780E0,2.392822690E-2,7.235895634E0,7.353786695E0
1.332362516E0,1.435693540E-2,-1.253839016E0,1.320838070E1,1.326776692E1
1.334738141E0,6.747759581E-1,-2.536391914E-1,5.714060307E0,5.759352448E0
1.337113818E0,-1.483550072E0,-9.954141974E-1,1.315573883E1,1.327649180E1
1.339489443E0,2.435893536E0,-6.604190469E-1,7.293323517E0,7.717661469E0
1.341865068E0,-2.589034081E0,-4.785645381E-2,1.149512005E1,1.178317328E1
1.344240693E0,2.364108801E0,-1.335195065E0,9.829715729E0,1.019779719E1
1.346616318E0,-2.120040894E0,9.571290575E-3,8.853444099E0,9.103743045E0
1.348991943E0,1.540977836E0,-1.564906001E0,1.279202938E1,1.297919717E1
1.351367568E0,-5.072783828E-1,-1.483550072E-1,6.340980053E0,6.362968537E0
1.353743193E0,-5.790630579E-1,-1.148554921E0,1.328973675E1,1.335183865E1
1.356118818E0,1.727617979E0,-6.317051649E-1,5.972485542E0,6.249343874E0
1.358494443E0,-1.780260086E0,-7.417750359E-1,1.295474148E1,1.309751438E1
1.360870120E0,2.694318295E0,-9.188438654E-1,8.082955360E0,8.569585315E0
1.363245745E0,-2.665604353E0,1.100698411E-1,1.049491978E1,1.082870736E1
1.365621370E0,2.268395901E0,-1.727617979E0,1.103569794E1,1.139811005E1
1.367996995E0,-1.383051515E0,-4.307080805E-2,8.087740898E0,8.205256816E0
1.370372620E0,7.322037220E-1,-1.526620865E0,1.312223911E1,1.323101859E1
1.372748245E0,2.344966233E-1,-2.536391914E-1,5.867201328E0,5.877361052E0
1.375123870E0,-1.201196909E0,-1.119840980E0,1.312702465E1,1.322934972E1
1.377499495E0,2.440679073E0,-7.465606928E-1,6.786045074E0,7.250149996E0
1.379875120E0,-2.311466694E0,-3.924229145E-1,1.200239849E1,1.222924542E1
1.382250745E0,2.598605394E0,-1.148554921E0,9.241081238E0,9.667963118E0
1.384626422E0,-2.603390932E0,5.742774159E-2,9.284152031E0,9.642428181E0
1.387002047E0,1.804188251E0,-1.708475351E0,1.244746304E1,1.269304216E1
1.389377672E0,-8.709874153E-1,-1.483550072E-1,7.010970116E0,7.066422733E0
1.391753297E0,-3.110669553E-1,-1.253839016E0,1.339980698E1,1.346193530E1
1.394128922E0,8.853443861E-1,-4.977070987E-1,5.819344521E0,5.907310529E0
1.396504547E0,-1.713261008E0,-1.038485050E0,1.290688515E1,1.306144704E1
1.398880172E0,2.545963287E0,-8.087740541E-1,7.738388538E0,8.186495080E0
1.401255797E0,-2.770888567E0,-4.785645381E-2,1.104048347E1,1.138298682E1
1.403631422E0,2.187039852E0,-1.531406522E0,1.036570740E1,1.070402911E1
1.406007047E0,-2.139183521E0,9.571290575E-3,8.523234367E0,8.787589079E0
1.408382672E0,9.571290612E-1,-1.631905079E0,1.325623703E1,1.339055751E1
1.410758349E0,-3.924229145E-1,-2.440679073E-1,6.384050846E0,6.400755431E0
1.413133974E0,-1.095912814E0,-1.071984529E0,1.325623703E1,1.334458676E1
1.415509599E0,1.732403636E0,-7.130611539E-1,6.374479294E0,6.644069900E0
1.417885224E0,-2.038684845E0,-6.317051649E-1,1.256231880E1,1.274233656E1
1.420260849E0,2.478964329E0,-1.124626637E0,8.489734650E0,8.915472149E0
1.422636474E0,-2.799602509E0,2.392822653E-1,1.001635551E1,1.040299995E1
1.425012099E0,1.885544300E0,-1.765903115E0,1.165304661E1,1.193596190E1
1.427387724E0,-1.191625714E0,-6.221338734E-2,7.728816986E0,7.820387097E0
1.429763349E0,1.722832322E-1,-1.416550994E0,1.343809223E1,1.351364574E1
1.432138974E0,4.785645306E-1,-3.684946895E-1,6.029912949E0,6.060087666E0
1.434514651E0,-1.564906001E0,-9.714859724E-1,1.294517040E1,1.307555553E1
1.436890276E0,2.522035122E0,-8.662018180E-1,7.231110096E0,7.707134355E0
1.439265901E0,-2.249253273E0,-1.435693651E-1,1.164347458E1,1.185960593E1
1.441641526E0,2.579462767E0,-1.445264935E0,9.638289452E0,1.008161904E1
1.444017151E0,-2.368894339E0,1.483550072E-1,8.891729355E0,9.203071255E0
1.446392776E0,1.435693622E0,-1.761117458E0,1.283988667E1,1.303938037E1
1.448768401E0,-2.153540403E-1,-1.722832322E-1,6.920042992E0,6.925536361E0
1.451144026E0,-4.881358147E-1,-1.244267821E0,1.335195065E1,1.341868343E1
1.453519651E0,1.478764415E0,-6.077769399E-1,6.202196121E0,6.404949159E0
1.455895276E0,-1.761117458E0,-8.470591903E-1,1.254796219E1,1.269922829E1
1.458270953E0,2.876172781E0,-1.000199914E0,8.255238533E0,8.798962039E0
1.460646578E0,-2.483749866E0,1.052841991E-1,1.034656525E1,1.064102958E1
1.463022203E0,2.282752752E0,-1.660618901E0,1.107876873E1,1.143274822E1
1.465397828E0,-1.488335729E0,4.785645287E-3,7.958528042E0,8.096501389E0
1.467773453E0,7.704889178E-1,-1.540977836E0,1.353859043E1,1.364777259E1
1.470149078E0,3.254238665E-1,-3.684946895E-1,6.278766632E0,6.297983761E0
1.472524703E0,-1.225125194E0,-1.000199914E0,1.307916832E1,1.317444403E1
1.474900328E0,2.182254314E0,-7.800601721E-1,6.843472958E0,7.225223172E0
1.477275953E0,-1.938186288E0,-4.163511395E-1,1.196889877E1,1.213195995E1
1.479651578E0,2.756531715E0,-1.306481123E0,9.087940216E0,9.586241046E0
1.482027255E0,-2.478964329E0,3.302095234E-1,9.288937569E0,9.619701847E0
1.484402828E0,1.574477315E0,-1.689332843E0,1.227517986E1,1.249051100E1
1.486778505E0,-6.221339107E-1,-1.004985496E-1,7.264609337E0,7.291892716E0
1.489154130E0,-2.440679073E-1,-1.263410330E0,1.352423382E1,1.358531101E1
1.491529755E0,9.762716293E-1,-4.498506486E-1,6.206982136E0,6.299372916E0
1.493905380E0,-1.904686809E0,-8.183453679E-1,1.259581852E1,1.276527184E1
1.496281005E0,2.526820660E0,-9.523434043E-1,7.647460938E0,8.110205879E0
1.498656630E0,-2.234896421E0,1.244267747E-1,1.097348499E1,1.119944717E1
1.501032255E0,2.311466694E0,-1.689332843E0,1.013599682E1,1.053257591E1
1.503407880E0,-2.187039852E0,3.589234054E-1,8.370093346E0,8.658546757E0
1.505783505E0,7.896314859E-1,-1.741974831E0,1.317966747E1,1.331771861E1
1.508159182E0,7.657032460E-2,-1.722832322E-1,6.766902447E0,6.769528289E0
1.510534807E0,-1.095912814E0,-1.134197950E0,1.316052437E1,1.325469093E1
1.512910432E0,1.713261008E0,-6.604190469E-1,6.723831654E0,6.970030754E0
1.515286057E0,-2.086541414E0,-5.455635786E-1,1.196411324E1,1.215694453E1
1.517661682E0,2.794816732E0,-1.244267821E0,8.729017258E0,9.249591627E0
1.520037307E0,-2.550748825E0,2.440679073E-1,9.547362328E0,9.885242340E0
1.522412932E0,1.746760488E0,-1.722832322E0,1.172004509E1,1.197408787E1
1.524788557E0,-1.143769264E0,-1.914258115E-2,7.389036179E0,7.477060266E0
1.527164182E0,4.307080805E-2,-1.450050473E0,1.365344620E1,1.373029841E1
1.529539807E0,7.369893789E-1,-4.450650215E-1,6.403193474E0,6.460814413E0
1.531915432E0,-1.727617979E0,-9.667003751E-1,1.277767277E1,1.293012354E1
1.534291109E0,2.325823545E0,-8.757730722E-1,7.436892986E0,7.841161325E0
1.536666734E0,-2.139183521E0,-2.440679073E-1,1.101655579E1,1.122498003E1
1.539042359E0,2.598605394E0,-1.512263894E0,9.863214493E0,1.031128955E1
1.541417984E0,-2.134397745E0,2.727817893E-1,8.523234367E0,8.790653430E0
1.543793609E0,9.379864931E-1,-1.722832322E0,1.277288723E1,1.292263975E1
1.546169234E0,-1.627119333E-1,-1.914258152E-1,6.824330330E0,6.828953322E0
1.548544859E0,-6.460621357E-1,-1.253839016E0,1.353859043E1,1.361186760E1
1.550920484E0,1.545763373E0,-6.843472719E-1,6.695117950E0,6.905238589E0
1.553296109E0,-2.091326952E0,-6.077769399E-1,1.215553856E1,1.234909547E1
1.555671734E0,2.651247501E0,-1.220339537E0,8.274380684E0,8.774036563E0
1.558047411E0,-2.158325911E0,1.674975902E-1,9.987641335E0,1.021955995E1
1.560423036E0,2.110469580E0,-1.875972986E0,1.104526901E1,1.140049666E1
1.562798661E0,-1.473978758E0,2.679961324E-1,7.671389580E0,7.816306889E0
1.565174286E0,7.178468257E-2,-1.607976794E0,1.335673618E1,1.345336924E1
1.567549911E0,7.417750359E-1,-3.876372576E-1,6.714260101E0,6.766223582E0
1.569925536E0,-1.502692580E0,-1.095912814E0,1.291167068E1,1.304493579E1
1.572301161E0,2.048256159E0,-7.369893789E-1,7.436892986E0,7.748927921E0
1.574676786E0,-2.206182480E0,-2.440679073E-1,1.113141060E1,1.135055559E1
1.577052411E0,2.665604353E0,-1.497906923E0,9.461220741E0,9.943031209E0
1.579428036E0,-2.158325911E0,2.488535494E-1,8.767302513E0,9.032490918E0
1.581803713E0,1.210768223E0,-1.641476393E0,1.247139168E1,1.263708886E1
1.584179338E0,-6.125625968E-1,-3.349951655E-2,6.857829571E0,6.885214708E0
1.586554963E0,-6.364908218E-1,-1.330409408E0,1.361994648E1,1.369956393E1
1.588930588E0,1.363908887E0,-5.120640397E-1,6.886543751E0,7.038958862E0
1.591306213E0,-2.043470621E0,-7.322037220E-1,1.236610699E1,1.255517807E1
1.593681838E0,2.392822742E0,-9.667003751E-1,8.140382767E0,8.539668722E0
1.596057463E0,-2.268395901E0,-9.571290575E-3,1.010249710E1,1.035404072E1
1.598433088E0,2.373680115E0,-1.674975872E0,1.073898792E1,1.112500621E1
1.600808713E0,-1.665404558E0,2.536391914E-1,7.738388538E0,7.919631453E0
1.603184338E0,1.722832322E-1,-1.540977836E0,1.329452229E1,1.338464109E1
1.605559911E0,4.354937077E-1,-3.110669553E-1,6.637690067E0,6.659230199E0
1.607935641E0,-1.220339537E0,-1.138983607E0,1.339502144E1,1.349863369E1
1.610311266E0,1.947757602E0,-7.561319470E-1,7.403393269E0,7.692576102E0
1.612686891E0,-2.172683001E0,-3.062812984E-1,1.149990559E1,1.170735616E1
1.615062463E0,2.569891453E0,-1.373480201E0,9.078369141E0,9.534546460E0
1.617438141E0,-1.928615093E0,2.105683982E-1,9.083154678E0,9.288034999E0
1.619813766E0,1.684547186E0,-1.837687731E0,1.198804188E1,1.224450667E1
1.622189391E0,-7.130611539E-1,2.679961324E-1,6.982256413E0,7.023687261E0
1.624565016E0,-5.694918036E-1,-1.373480201E0,1.346201992E1,1.354388235E1
1.626940641E0,1.469193101E0,-4.402793646E-1,6.948757172E0,7.116010154E0
1.629316266E0,-1.708475351E0,-9.092726111E-1,1.261974621E1,1.276728863E1
1.631691943E0,2.388036966E0,-8.231309652E-1,8.236095428E0,8.614727683E0
1.634067568E0,-2.225325108E0,-1.914258115E-2,1.027478027E1,1.051301802E1
1.636443193E0,2.531606436E0,-1.679761529E0,1.036570740E1,1.080178318E1
1.638818818E0,-1.392622828E0,3.780659735E-1,7.910671711E0,8.041210055E0
1.641194443E0,6.412764788E-1,-1.564906001E0,1.308395386E1,1.319280163E1
1.643570068E0,2.488535494E-1,-4.785645381E-2,6.374479294E0,6.379514448E0
1.645945693E0,-1.138983607E0,-1.162911773E0,1.343809223E1,1.353632041E1
1.648321318E0,2.081755638E0,-5.647061467E-1,7.499105930E0,7.803152525E0
1.650696891E0,-2.110469580E0,-4.067798555E-1,1.175833035E1,1.195315373E1
1.653072568E0,2.483749866E0,-1.115055323E0,8.920442581E0,9.326663799E0
1.655448245E0,-2.105684042E0,2.057827413E-1,9.054440498E0,9.298340957E0
1.657823870E0,2.000399828E0,-1.694118381E0,1.176790142E1,1.205633196E1
1.660199495E0,-7.800601721E-1,2.440679073E-1,6.853044033E0,6.901613980E0
1.662575120E0,-5.168496966E-1,-1.282552958E0,1.341894913E1,1.349000635E1
1.664950745E0,1.119840980E0,-3.397808075E-1,6.680760860E0,6.782481883E0
1.667326370E0,-1.598405480E0,-9.332008362E-1,1.294038486E1,1.307208187E1
1.669701995E0,2.239681959E0,-7.609176040E-1,8.264809608E0,8.596641713E0
1.672077620E0,-2.354537487E0,3.828516230E-2,1.048534870E1,1.074652734E1
1.674453245E0,2.301895380E0,-1.521835208E0,1.001156998E1,1.038490434E1
1.676828870E0,-1.674975872E0,2.344966233E-1,8.001599312E0,8.178393753E0
1.679204547E0,8.662018180E-1,-1.560120344E0,1.284945774E1,1.297277323E1
1.681580172E0,-6.699903309E-2,1.148554832E-1,6.312266350E0,6.313666694E0
1.683955797E0,-1.435693622E0,-1.124626637E0,1.328973675E1,1.341428731E1
1.686331422E0,1.804188251E0,-5.359922647E-1,7.412964344E0,7.648164703E0
1.688707047E0,-2.100898266E0,-5.982056856E-1,1.205504036E1,1.225135183E1
1.691082672E0,2.230110645E0,-1.067198873E0,8.944371223E0,9.279767427E0
1.693458297E0,-2.550748825E0,1.914258152E-1,9.145368576E0,9.496353500E0
1.695833922E0,1.933400750E0,-1.818545222E0,1.134676456E1,1.165307733E1
1.698209547E0,-7.896314859E-1,2.967100143E-1,7.068397999E0,7.118553574E0
1.700585172E0,-3.541377485E-1,-1.469193101E0,1.324666595E1,1.333259543E1
1.702960797E0,8.662018180E-1,-1.770688742E-1,6.407979012E0,6.468682554E0
1.705336474E0,-1.813759565E0,-1.124626637E0,1.289731407E1,1.307268982E1
1.707712099E0,2.407179594E0,-7.034898400E-1,8.370093346E0,8.737727060E0
1.710087724E0,-2.306680918E0,-2.201396823E-1,1.071506023E1,1.096274392E1
1.712463349E0,2.321038008E0,-1.435693622E0,9.992427826E0,1.035842881E1
1.714838974E0,-1.818545222E0,2.105683982E-1,8.049455643E0,8.255009505E0
1.717214599E0,1.249053478E0,-1.741974831E0,1.270110226E1,1.288070687E1
1.719590224E0,9.092725813E-2,1.914258115E-2,6.159125328E0,6.159826216E0
1.721965849E0,-1.258624673E0,-1.177268744E0,1.349073410E1,1.360036780E1
1.724341474E0,1.775474429E0,-5.120640397E-1,7.015756130E0,7.255022613E0
1.726717099E0,-1.861616015E0,-8.183453679E-1,1.237089348E1,1.253691783E1
1.729092724E0,2.464607239E0,-1.057627559E0,9.078369141E0,9.466237434E0
1.731468401E0,-2.359323025E0,5.264209956E-2,9.518648148E0,9.806826137E0
1.733844026E0,2.057827473E0,-1.813759565E0,1.117448139E1,1.150623362E1
1.736219651E0,-8.709874153E-1,8.135596663E-2,7.039684296E0,7.093827800E0
1.738595276E0,1.531406492E-1,-1.421336651E0,1.341894913E1,1.349488220E1
1.740970901E0,9.906286001E-1,-2.392822653E-1,6.125626087E0,6.209822541E0
1.743346526E0,-1.899901152E0,-1.052842021E0,1.314138222E1,1.331968571E1
1.745722151E0,2.397608280E0,-7.752745152E-1,8.183453560E0,8.562621573E0
1.748097776E0,-2.091326952E0,-3.302095234E-1,1.130848026E1,1.150497339E1
1.750473401E0,2.435893536E0,-1.454836130E0,1.007378292E1,1.046571678E1
1.752849078E0,-1.966900229E0,1.339980662E-1,8.197810173E0,8.431532697E0
1.755224703E0,1.320838094E0,-1.861616015E0,1.250967693E1,1.271621974E1
1.757600328E0,2.009970993E-1,-1.914258115E-2,6.317051888E0,6.320277749E0
1.759975953E0,-1.000199914E0,-1.296909928E0,1.348116302E1,1.358028467E1
1.762351578E0,1.794616938E0,-4.307080805E-1,6.900900364E0,7.143429515E0
1.764727203E0,-2.191825628E0,-8.614161611E-1,1.243789196E1,1.265888201E1
1.767102828E0,2.684746981E0,-1.019342422E0,9.422935486E0,9.850819179E0
1.769478453E0,-2.354537487E0,-1.483550072E-1,9.623932838E0,9.908881837E0
1.771854078E0,1.962114573E0,-1.655833244E0,1.136112213E1,1.164760806E1
1.774229703E0,-1.067198873E0,4.785645381E-2,7.144968510E0,7.224387772E0
1.776605380E0,2.536391914E-1,-1.607976794E0,1.324666595E1,1.334631339E1
1.778981005E0,9.427721500E-1,-2.057827413E-1,6.077769279E0,6.153896756E0
1.781356630E0,-1.890329838E0,-9.858429432E-1,1.329930782E1,1.346910620E1
1.783732255E0,2.215753794E0,-6.939185858E-1,7.824530125E0,8.161762037E0
1.786107880E0,-2.297109842E0,-4.402793646E-1,1.151904774E1,1.175410653E1
1.788483505E0,2.445464849E0,-1.387837172E0,1.023170948E1,1.061104468E1
1.790859130E0,-2.220539331E0,6.221338734E-2,8.427521706E0,8.715376499E0
1.793234755E0,1.210768223E0,-1.727617979E0,1.247617722E1,1.265328501E1
1.795610380E0,-1.244267747E-1,-1.339980662E-1,6.101697922E0,6.104437323E0
1.797986005E0,-7.752745152E-1,-1.277767301E0,1.366301727E1,1.374451821E1
1.800361682E0,1.636690736E0,-5.359922647E-1,6.407979012E0,6.635377855E0
1.802737307E0,-2.440679073E0,-6.173482537E-1,1.277767277E1,1.302332348E1
1.805112932E0,2.421536446E0,-1.076770186E0,8.958727837E0,9.342487744E0
1.807488557E0,-2.368894339E0,-1.627119333E-1,1.024128056E1,1.051294264E1
1.809864182E0,1.990828395E0,-1.751546144E0,1.126540947E1,1.157327793E1
1.812239807E0,-1.488335729E0,3.828516230E-2,7.298109055E0,7.448422972E0
1.814615432E0,2.344966233E-1,-1.612762451E0,1.311745358E1,1.321830472E1
1.816991057E0,9.236295223E-1,-3.924229145E-1,5.929414749E0,6.013738147E0
1.819366682E0,-1.751546144E0,-1.167697430E0,1.333280754E1,1.349796978E1
1.821742307E0,2.263610125E0,-6.891329288E-1,7.604390144E0,7.964018110E0
1.824117932E0,-2.636890650E0,-4.785645306E-1,1.145683479E1,1.176610725E1
1.826493557E0,2.488535643E0,-1.445264935E0,1.031785107E1,1.071165958E1
1.828869234E0,-2.100898266E0,-1.387837082E-1,8.719446182E0,8.970048839E0
1.831244859E0,1.263410330E0,-1.727617979E0,1.247617722E1,1.265843069E1
1.833620484E0,-4.019941986E-1,-1.770688742E-1,6.254838467E0,6.270243772E0
1.835996109E0,-6.077769399E-1,-1.502692580E0,1.330409431E1,1.340247751E1
1.838371734E0,1.928615093E0,-5.742774606E-1,6.364908218E0,6.675433125E0
1.840747359E0,-2.368894339E0,-8.327022791E-1,1.268196011E1,1.292815399E1
1.843122984E0,2.502892494E0,-1.019342422E0,8.575876236E0,8.991617375E0
1.845498609E0,-2.359323025E0,-2.392822653E-1,1.023170948E1,1.050293007E1
1.847874234E0,2.268395901E0,-1.751546144E0,1.149990559E1,1.185163965E1
1.850249859E0,-1.330409408E0,-1.292124242E-1,7.451249599E0,7.570191915E0
1.852625536E0,3.302095234E-1,-1.521835208E0,1.306959724E1,1.316204364E1
1.855001161E0,7.896314859E-1,-4.689932466E-1,5.709274769E0,5.782671609E0
1.857376786E0,-1.249053478E0,-1.205982566E0,1.338544941E1,1.349758439E1
1.859752411E0,2.512463808E0,-8.279166222E-1,7.121040344E0,7.596521303E0
1.862128036E0,-2.541177750E0,-2.679961324E-1,1.175354481E1,1.202810134E1
1.864503661E0,2.617748022E0,-1.545763373E0,9.858428955E0,1.031652124E1
1.866879234E0,-1.899901152E0,-2.105683982E-1,9.064012527E0,9.263384184E0
1.869254911E0,1.536192179E0,-1.794616938E0,1.258146191E1,1.280131712E1
1.871630536E0,-4.211367965E-1,-2.009970993E-1,6.527620316E0,6.544278648E0
1.874006161E0,-5.072783828E-1,-1.392622828E0,1.327538013E1,1.335786088E1
1.876381838E0,1.914258122E0,-7.322037220E-1,6.173482418E0,6.504797585E0
1.878757463E0,-1.942971945E0,-7.944171429E-1,1.294517040E1,1.311425466E1
1.881133088E0,2.665604353E0,-1.076770186E0,8.264809608E0,8.750540467E0
1.883508713E0,-2.665604353E0,-8.135596663E-2,1.037049294E1,1.070790311E1
1.885884338E0,2.311466694E0,-1.775474429E0,1.142333508E1,1.178930753E1
1.888259911E0,-1.306481123E0,-1.244267747E-1,7.862815380E0,7.971589594E0
1.890635588E0,4.115654826E-1,-1.526620865E0,1.326102352E1,1.335495048E1
1.893011213E0,4.689932466E-1,-4.354937077E-1,5.910272121E0,5.944823461E0
1.895386838E0,-1.406979680E0,-1.272981644E0,1.313659668E1,1.327291401E1
1.897762516E0,2.522035122E0,-7.657032609E-1,7.302894592E0,7.763970123E0
1.900138088E0,-2.608176708E0,-3.876372576E-1,1.172483063E1,1.201767455E1
1.902513766E0,2.335394859E0,-1.339980721E0,9.647860527E0,1.001652785E1
1.904889391E0,-2.373680115E0,-4.785645381E-2,9.121439934E0,9.425354847E0
1.907264963E0,1.483550072E0,-1.804188251E0,1.283988667E1,1.305062089E1
1.909640641E0,-7.178468108E-1,-2.057827413E-1,6.642475605E0,6.684319916E0
1.912016266E0,-7.704889178E-1,-1.191625714E0,1.342852020E1,1.350328774E1
1.914391891E0,1.368694544E0,-6.173482537E-1,6.001199245E0,6.186181052E0
1.916767516E0,-1.952543259E0,-8.470591903E-1,1.286859989E1,1.304341971E1
1.919143141E0,2.517249346E0,-1.009771109E0,8.044670105E0,8.489575906E0
1.921518766E0,-2.809173822E0,1.387837082E-1,1.049013424E1,1.086064615E1
1.923894391E0,2.067398787E0,-1.670190215E0,1.102134132E1,1.133726765E1
1.926270068E0,-1.488335729E0,-1.100698411E-1,8.063812256E0,8.200751594E0
1.928645693E0,4.833501875E-1,-1.440479279E0,1.332323647E1,1.340959499E1
1.931021318E0,2.775674164E-1,-3.158525825E-1,6.101697922E0,6.116169067E0
1.933396943E0,-1.411765337E0,-1.062413216E0,1.296431351E1,1.308415943E1
1.935772568E0,2.335394859E0,-7.800601721E-1,6.829115868E0,7.259434314E0
1.938148193E0,-2.048256159E0,-2.488535494E-1,1.193539906E1,1.211243295E1
1.940523818E0,2.617748022E0,-1.359123230E0,9.111868858E0,9.577367841E0
1.942899443E0,-2.445464849E0,2.584248483E-1,9.145368576E0,9.470208452E0
1.945275068E0,1.689332843E0,-1.799402595E0,1.247617722E1,1.271796733E1
1.947650693E0,-3.397808075E-1,-8.614161611E-2,7.121040344E0,7.129662472E0
1.950026318E0,-3.493520916E-1,-1.249053478E0,1.330409431E1,1.336716526E1
1.952401995E0,1.550549030E0,-5.407779217E-1,6.259624004E0,6.471440005E0
1.954777620E0,-1.655833244E0,-8.135597110E-1,1.245224857E1,1.258817531E1
1.957153245E0,2.991028309E0,-9.954141974E-1,8.140382767E0,8.729429040E0
1.959528870E0,-2.230110645E0,7.657032460E-2,1.038006496E1,1.061720326E1
1.961904495E0,2.397608280E0,-1.598405480E0,1.082991505E1,1.120671609E1
1.964280120E0,-1.373480201E0,9.571290575E-3,8.059026718E0,8.175234010E0
1.966655745E0,8.566305041E-1,-1.607976794E0,1.340937805E1,1.353258382E1
1.969031422E0,5.455635786E-1,-3.541377485E-1,6.460621357E0,6.493279717E0
1.971407047E0,-1.158126116E0,-1.062413216E0,1.308395386E1,1.317800541E1
1.973782672E0,2.273181438E0,-7.800601721E-1,6.920042992E0,7.325492661E0
1.976158297E0,-1.871187329E0,-4.785645306E-1,1.182532978E1,1.198201946E1
1.978533922E0,2.842673302E0,-1.335195065E0,9.126225471E0,9.651503961E0
1.980909547E0,-2.402393818E0,2.201396823E-1,9.121439934E0,9.435074139E0
1.983285172E0,1.517049551E0,-1.775474429E0,1.232303619E1,1.254236699E1
1.985660797E0,-5.312066078E-1,-1.722832322E-1,7.111468792E0,7.133361785E0
1.988036422E0,-3.493520916E-1,-1.311266780E0,1.363430309E1,1.370166735E1
1.990411995E0,1.191625714E0,-6.364908218E-1,6.422336102E0,6.562887582E0
1.992787672E0,-1.990828395E0,-8.805587292E-1,1.250967693E1,1.269766901E1
1.995163349E0,2.493321180E0,-9.906286001E-1,7.834101200E0,8.280769116E0
1.997538974E0,-2.187039852E0,3.828516230E-2,1.072941685E1,1.095011392E1
1.999914599E0,2.230110645E0,-1.746760488E0,1.028913784E1,1.067196904E1
2.002290224E0,-2.024327993E0,3.493520916E-1,8.212167740E0,8.465202283E0
2.004665849E0,3.972085714E-1,-1.727617979E0,1.321795273E1,1.333629307E1
2.007041474E0,2.727817893E-1,-2.632105052E-1,6.709474564E0,6.720174000E0
2.009417099E0,-1.387837172E0,-1.105484009E0,1.317488194E1,1.329382191E1
2.011792724E0,1.780260086E0,-6.652047038E-1,7.054041386E0,7.305567955E0
2.014168349E0,-2.167897224E0,-3.924229145E-1,1.164826107E1,1.185477794E1
2.016543974E0,2.636890650E0,-1.354337573E0,8.997013092E0,9.472785606E0
2.018919651E0,-2.297109842E0,2.632105052E-1,9.255437851E0,9.539870188E0
2.021295276E0,1.483550072E0,-1.698904037E0,1.199282742E1,1.220307769E1
2.023670901E0,-8.901300430E-1,9.571290575E-3,7.192824841E0,7.247699793E0
2.026046526E0,-3.254238665E-1,-1.387837172E0,1.356730461E1,1.364198472E1
2.028422151E0,1.124626637E0,-4.785645306E-1,6.771687984E0,6.881102182E0
2.030797776E0,-1.914258122E0,-8.518448472E-1,1.262453270E1,1.279722039E1
2.033173401E0,2.421536446E0,-9.571290612E-1,7.877171993E0,8.296371099E0
2.035549026E0,-2.167897224E0,-8.135596663E-2,1.052363396E1,1.074491828E1
2.037924599E0,2.517249346E0,-1.679761529E0,1.033699417E1,1.077086773E1
2.040300276E0,-1.761117458E0,2.584248483E-1,8.068597794E0,8.262601797E0
2.042675901E0,6.125625968E-1,-1.607976794E0,1.312223911E1,1.323457523E1
2.045051578E0,2.871387303E-1,-2.823530734E-1,6.690331936E0,6.702440848E0
2.047427203E0,-9.571290612E-1,-1.177268744E0,1.351466274E1,1.359956495E1
2.049802828E0,1.928615093E0,-6.891329288E-1,7.154539585E0,7.441901440E0
2.052178453E0,-2.096112728E0,-4.307080805E-1,1.181575775E1,1.200796941E1
2.054554078E0,2.684746981E0,-1.263410330E0,8.724231720E0,9.215003587E0
2.056929703E0,-1.981257200E0,1.531406492E-1,9.341579437E0,9.550598857E0
2.059305328E0,1.871187329E0,-1.837687731E0,1.160997581E1,1.190251976E1
2.061680953E0,-8.757730722E-1,2.584248483E-1,7.149754047E0,7.207825249E0
2.064056578E0,-4.259224236E-1,-1.397408366E0,1.334237862E1,1.342211709E1
2.066432203E0,1.296909928E0,-3.972085714E-1,6.848258495E0,6.981288880E0
2.068807880E0,-1.651047587E0,-9.762716293E-1,1.272024536E1,1.286404705E1
2.071183505E0,2.254039049E0,-7.896314859E-1,7.891529083E0,8.245025239E0
2.073559130E0,-2.306680918E0,6.221338734E-2,1.047577763E1,1.072690842E1
2.075934755E0,2.488535643E0,-1.751546144E0,9.949356079E0,1.040434572E1
2.078310380E0,-1.665404558E0,4.163511395E-1,8.164310455E0,8.342834400E0
2.080686005E0,6.364908218E-1,-1.598405480E0,1.280160141E1,1.291669537E1
2.083061630E0,-4.307080805E-2,-4.307080805E-2,6.484549522E0,6.484835595E0
2.085437255E0,-1.172483087E0,-1.210768223E0,1.330887985E1,1.341517645E1
2.087812880E0,1.789831281E0,-5.694918036E-1,7.475177765E0,7.707535244E0
2.090188557E0,-2.215753794E0,-4.019941986E-1,1.182532978E1,1.203783987E1
2.092564182E0,2.378465652E0,-1.167697430E0,8.700303078E0,9.094827639E0
2.094939755E0,-2.297109842E0,1.866401732E-1,9.178867340E0,9.463781159E0
2.097315432E0,1.856830359E0,-1.751546144E0,1.163390350E1,1.191064413E1
2.099691057E0,-9.619147182E-1,2.775674164E-1,6.972685337E0,7.044193666E0
2.102066682E0,-5.838487148E-1,-1.316052437E0,1.339980698E1,1.347693216E1
2.104442307E0,8.614161611E-1,-3.302095234E-1,6.652047157E0,6.715713478E0
2.106817932E0,-1.655833244E0,-9.427721500E-1,1.303131199E1,1.316987833E1
2.109193557E0,2.143969059E0,-8.039883971E-1,8.183453560E0,8.497759283E0
2.111569182E0,-2.459821701E0,-4.785645381E-2,1.062413216E1,1.090528299E1
2.113944807E0,2.268395901E0,-1.536192179E0,9.920642853E0,1.029197070E1
2.116320484E0,-1.727617979E0,1.722832322E-1,8.130811691E0,8.314111146E0
2.118696109E0,8.997012973E-1,-1.670190215E0,1.275853062E1,1.289880232E1
2.121071734E0,-6.221338734E-2,4.785645287E-3,6.518048763E0,6.518347420E0
2.123447359E0,-1.493121386E0,-1.215553880E0,1.330409431E1,1.344268977E1
2.125822984E0,1.818545222E0,-6.077769399E-1,7.556533813E0,7.796005567E0
2.128198609E0,-2.019542217E0,-6.604190469E-1,1.216511059E1,1.234927608E1
2.130574234E0,2.225325108E0,-1.119840980E0,9.001798630E0,9.340154936E0
2.132949859E0,-2.517249346E0,1.674975902E-1,9.322437286E0,9.657765615E0
2.135325484E0,1.923829436E0,-1.919043779E0,1.139462185E1,1.171414768E1
2.137701109E0,-8.087740541E-1,2.727817893E-1,7.121040344E0,7.172010943E0
2.140076734E0,-4.259224236E-1,-1.469193101E0,1.331845093E1,1.340600885E1
2.142452411E0,7.896314859E-1,-2.009970993E-1,6.503692150E0,6.554535018E0
2.144828036E0,-1.847259045E0,-1.167697430E0,1.299781227E1,1.318025065E1
2.147203661E0,2.297109842E0,-6.843472719E-1,8.523234367E0,8.853844865E0
2.149579286E0,-2.431107759E0,-2.201396823E-1,1.075813103E1,1.103159688E1
2.151954911E0,2.191825628E0,-1.473978758E0,9.973284721E0,1.031712756E1
2.154330536E0,-1.885544300E0,1.914258152E-1,8.078168869E0,8.297513689E0
2.156706109E0,1.138983607E0,-1.756331801E0,1.265803146E1,1.282995501E1
2.159081786E0,-4.785645287E-3,4.307080805E-2,6.235695839E0,6.235846421E0
2.161457411E0,-1.368694544E0,-1.148554921E0,1.349073410E1,1.360854179E1
2.163833036E0,1.718046665E0,-5.168496966E-1,7.015756130E0,7.241522770E0
2.166208713E0,-2.000399828E0,-7.226324677E-1,1.242353535E1,1.260428608E1
2.168584338E0,2.407179594E0,-1.052842021E0,9.135796547E0,9.506091124E0
2.170959963E0,-2.459821701E0,1.292124242E-1,9.427721024E0,9.744195316E0
2.173335536E0,1.962114573E0,-1.737189293E0,1.121755219E1,1.151960057E1
2.175711213E0,-8.614161611E-1,6.699903309E-2,6.977470875E0,7.030762866E0
2.178086838E0,1.004985496E-1,-1.378265858E0,1.342373466E1,1.349467929E1
2.180462463E0,9.427721500E-1,-2.488535494E-1,6.049055576E0,6.127138058E0
2.182838088E0,-1.986042738E0,-1.009771109E0,1.311745358E1,1.330532193E1
2.185213713E0,2.469393015E0,-7.752745152E-1,8.207381248E0,8.605815440E0
2.187589391E0,-2.086541414E0,-3.062812984E-1,1.121276665E1,1.140936454E1
2.189965016E0,2.373680115E0,-1.454836130E0,1.002592659E1,1.040529238E1
2.192340641E0,-1.990828395E0,1.387837082E-1,8.178668022E0,8.418626327E0
2.194716266E0,1.196411371E0,-1.761117458E0,1.241396427E1,1.259521512E1
2.197091891E0,2.440679073E-1,-9.571290575E-3,6.297909260E0,6.302644032E0
2.199467516E0,-1.024128079E0,-1.296909928E0,1.336630726E1,1.346807274E1
2.201843141E0,1.737189293E0,-3.876372576E-1,6.872186661E0,7.098946315E0
2.204218766E0,-2.206182480E0,-7.944171429E-1,1.236132145E1,1.258175694E1
2.206594391E0,2.608176708E0,-1.019342422E0,9.365508080E0,9.775192392E0
2.208970016E0,-2.388036966E0,-5.742774159E-2,9.633503914E0,9.925241365E0
2.211345693E0,1.919043779E0,-1.679761529E0,1.132283688E1,1.160650519E1
2.213721318E0,-1.158126116E0,7.178468257E-2,7.068397999E0,7.163006311E0
2.216096943E0,2.153540403E-1,-1.560120344E0,1.319402409E1,1.328768695E1
2.218472568E0,9.379864931E-1,-2.871387303E-1,6.039484501E0,6.118630594E0
2.220848193E0,-1.990828395E0,-9.810572863E-1,1.318445301E1,1.336995409E1
2.223223818E0,2.148754835E0,-6.843472719E-1,7.795815945E0,8.115431275E0
2.225599443E0,-2.306680918E0,-4.594219327E-1,1.142812061E1,1.166763841E1
2.227975068E0,2.359323025E0,-1.306481123E0,1.016471100E1,1.051639899E1
2.230350693E0,-2.273181438E0,9.092725813E-2,8.365307808E0,8.669140461E0
2.232726370E0,1.129412293E0,-1.698904037E0,1.233260822E1,1.250020290E1
2.235101943E0,-1.531406492E-1,-1.531406492E-1,6.154339790E0,6.158149265E0
2.237477620E0,-8.662018180E-1,-1.234696507E0,1.351944828E1,1.360331808E1
2.239853245E0,1.670190215E0,-5.168496966E-1,6.412764549E0,6.646820152E0
2.242228870E0,-2.435893536E0,-6.317051649E-1,1.264846039E1,1.289636301E1
2.244604495E0,2.450250387E0,-1.014556766E0,8.839086533E0,9.228353218E0
2.246980120E0,-2.249253273E0,-7.178468257E-2,1.021735287E1,1.046224608E1
2.249355745E0,2.100898266E0,-1.713261008E0,1.121276665E1,1.153582128E1
2.251731370E0,-1.426122308E0,1.387837082E-1,7.269395351E0,7.409264102E0
2.254106995E0,3.684946895E-1,-1.540977836E0,1.307916832E1,1.317478823E1
2.256482672E0,1.038485050E0,-2.967100143E-1,5.871986866E0,5.970487232E0
2.258858297E0,-1.612762451E0,-1.095912814E0,1.324666595E1,1.338940576E1
2.261233922E0,2.407179594E0,-5.551348329E-1,7.518248558E0,7.913706443E0
2.263609547E0,-2.445464849E0,-3.732803464E-1,1.141376400E1,1.167876899E1
2.265985172E0,2.708675146E0,-1.335195065E0,1.024128056E1,1.067724189E1
2.268360797E0,-1.875972986E0,-2.392822690E-2,8.638090134E0,8.839482358E0
2.270736422E0,1.560120344E0,-1.631905079E0,1.239960670E1,1.260346524E1
2.273112047E0,-1.962114573E-1,-4.307080805E-2,6.206982136E0,6.210231982E0
2.275487672E0,-3.206382394E-1,-1.359123230E0,1.324188042E1,1.331530780E1
2.277863297E0,2.096112728E0,-4.163511395E-1,6.302694798E0,6.655148274E0
2.280238922E0,-1.971685886E0,-7.322037220E-1,1.278724384E1,1.295906141E1
2.282614599E0,2.799602509E0,-8.805587292E-1,8.513663292E0,9.005310685E0
2.284990172E0,-2.143969059E0,-1.052841991E-1,1.030827999E1,1.052940285E1
2.287365849E0,2.598605394E0,-1.574477315E0,1.145204926E1,1.184825561E1
2.289741474E0,-1.153340459E0,-4.785645287E-3,7.422535896E0,7.511608100E0
2.292117099E0,6.412764788E-1,-1.406979680E0,1.317488194E1,1.326530593E1
2.294492724E0,1.028913736E0,-3.445664644E-1,5.670989513E0,5.773864528E0
2.296868349E0,-1.115055323E0,-1.081555843E0,1.345244884E1,1.354184224E1
2.299243974E0,2.622533560E0,-7.369893789E-1,7.130611420E0,7.633246677E0
2.301619599E0,-2.364108801E0,-1.770688742E-1,1.184925747E1,1.208409146E1
2.303995224E0,2.694318295E0,-1.378265858E0,9.772287369E0,1.023017929E1
2.306370901E0,-1.842473388E0,-7.178468257E-2,9.193224907E0,9.376312997E0
2.308746526E0,1.636690736E0,-1.694118381E0,1.242353535E1,1.264488134E1
2.311122151E0,-5.168496966E-1,-2.871387079E-2,6.575476646E0,6.595820739E0
2.313497776E0,-4.354937077E-1,-1.296909928E0,1.326102352E1,1.333140559E1
2.315873401E0,1.804188251E0,-6.508477330E-1,6.163911343E0,6.455424158E0
2.318249026E0,-1.981257200E0,-7.513462901E-1,1.295474148E1,1.312688951E1
2.320624651E0,2.603390932E0,-9.571290612E-1,8.212167740E0,8.667954740E0
2.323000276E0,-2.718246460E0,-2.871387079E-2,1.049013424E1,1.083663253E1
2.325375901E0,2.258824587E0,-1.756331801E0,1.129412270E1,1.165093118E1
2.327751526E0,-1.430907965E0,-9.092725813E-2,7.953742504E0,8.081941920E0
2.330127203E0,3.924229145E-1,-1.574477315E0,1.320359516E1,1.330292824E1
2.332502776E0,2.679961324E-1,-3.493520916E-1,5.962913990E0,5.979148105E0
2.334878453E0,-1.421336651E0,-1.292124271E0,1.316530991E1,1.330470473E1
2.337254078E0,2.349751949E0,-7.130611539E-1,7.178467751E0,7.586843196E0
2.339629651E0,-2.617748022E0,-4.259224236E-1,1.190190029E1,1.219381996E1
2.342005276E0,2.354537487E0,-1.339980721E0,9.485149384E0,9.864454062E0
2.344380953E0,-2.488535643E0,-8.135596663E-2,9.274580956E0,9.602982888E0
2.346756578E0,1.545763373E0,-1.852044702E0,1.269631672E1,1.292346363E1
2.349132203E0,-8.327022791E-1,-2.536391914E-1,6.838686943E0,6.893864303E0
2.351507828E0,-6.556333899E-1,-1.330409408E0,1.342373466E1,1.350542471E1
2.353883453E0,1.301695466E0,-6.891329288E-1,6.001199245E0,6.179296697E0
2.356259130E0,-1.880758643E0,-1.009771109E0,1.297867012E1,1.315305169E1
2.358634755E0,2.589034081E0,-1.038485050E0,7.977670670E0,8.451318121E0
2.361010380E0,-2.751745939E0,6.699903309E-2,1.072463131E1,1.107223154E1
2.363386005E0,2.143969059E0,-1.775474429E0,1.091605663E1,1.126539858E1
2.365761630E0,-1.540977836E0,-1.818545163E-1,8.193024635E0,8.338665147E0
2.368137255E0,7.752745152E-1,-1.607976794E0,1.338544941E1,1.350395852E1
2.370512880E0,1.579262912E-1,-3.780659735E-1,6.116054535E0,6.129763264E0
2.372888505E0,-1.220339537E0,-1.205982566E0,1.310309696E1,1.321494504E1
2.375264078E0,2.330609322E0,-8.853443861E-1,6.695117950E0,7.144240958E0
2.377639807E0,-1.976471543E0,-3.876372576E-1,1.218903828E1,1.235432542E1
2.380015432E0,2.699103832E0,-1.368694544E0,8.901300430E0,9.401682594E0
2.382391057E0,-2.459821701E0,2.584248483E-1,9.418149948E0,9.737507620E0
2.384766682E0,1.895115495E0,-1.909472466E0,1.224168110E1,1.253380644E1
2.387142307E0,-5.120640397E-1,-8.135596663E-2,7.235895634E0,7.254447877E0
2.389517932E0,-9.092725813E-2,-1.344766378E0,1.339980698E1,1.346742334E1
2.391893557E0,1.277767301E0,-5.072783828E-1,5.986842155E0,6.142662259E0
2.394269182E0,-1.526620865E0,-9.667003751E-1,1.275374508E1,1.288111387E1
2.396644807E0,2.895315409E0,-8.901300430E-1,7.805387497E0,8.372529892E0
2.399020432E0,-2.282752752E0,-1.435693540E-2,1.084905815E1,1.108662388E1
2.401396109E0,2.498106956E0,-1.512263894E0,1.036092186E1,1.076457998E1
2.403771734E0,-1.828116536E0,5.742774159E-2,8.274380684E0,8.474118463E0
2.406147359E0,1.076770186E0,-1.665404558E0,1.339502144E1,1.354103415E1
2.408522984E0,1.483550072E-1,-2.919243574E-1,6.355337143E0,6.363767692E0
2.410898609E0,-1.105484009E0,-1.071984529E0,1.323230934E1,1.332160862E1
2.413274234E0,1.933400750E0,-7.130611539E-1,6.498906136E0,6.817791111E0
2.415649859E0,-1.890329838E0,-5.455635786E-1,1.216511059E1,1.232318555E1
2.418025484E0,2.775674343E0,-1.172483087E0,8.714659691E0,9.220866455E0
2.420401109E0,-2.612962246E0,2.153540403E-1,9.537791252E0,9.891582837E0
2.422776734E0,1.794616938E0,-1.761117458E0,1.182054424E1,1.208500934E1
2.425152411E0,-9.379864931E-1,-1.052841991E-1,7.484749317E0,7.544029147E0
2.427528036E0,6.699903309E-2,-1.387837172E0,1.359601784E1,1.366683145E1
2.429903661E0,8.183453679E-1,-5.455635786E-1,6.273981094E0,6.350603714E0
2.432279234E0,-1.756331801E0,-9.475577474E-1,1.275853062E1,1.291366217E1
2.434654911E0,2.459821701E0,-9.714859724E-1,7.446464062E0,7.902172791E0
2.437030536E0,-2.086541414E0,-9.092725813E-2,1.126062298E1,1.145266575E1
2.439406161E0,2.440679073E0,-1.622333765E0,9.781859398E0,1.021144723E1
2.441781786E0,-2.244467735E0,2.967100143E-1,8.614161491E0,8.906708171E0
2.444157411E0,1.028913736E0,-1.813759565E0,1.294517040E1,1.311204881E1
2.446533036E0,-5.742774159E-2,-2.249253243E-1,6.867401123E0,6.871323565E0
2.448908713E0,-8.709874153E-1,-1.239482164E0,1.342373466E1,1.350894472E1
2.451284338E0,1.569691658E0,-6.412764788E-1,6.604190350E0,6.818394063E0
2.453659963E0,-1.995614052E0,-6.843472719E-1,1.217946720E1,1.236083444E1
2.456035588E0,2.732603550E0,-1.186840057E0,8.484949112E0,8.992778932E0
2.458411213E0,-2.407179594E0,1.531406492E-1,9.877572060E0,1.016781173E1
2.460786838E0,1.995614052E0,-1.679761529E0,1.139462185E1,1.168937472E1
2.463162463E0,-1.368694544E0,2.871387079E-2,7.599604607E0,7.721925888E0
2.465538088E0,1.483550072E-1,-1.483550072E0,1.356251907E1,1.364422419E1
2.467913713E0,6.699903607E-1,-4.163511395E-1,6.513263226E0,6.560856133E0
2.470289338E0,-1.598405480E0,-9.667003751E-1,1.294517040E1,1.307925252E1
2.472665016E0,2.148754835E0,-7.896314859E-1,7.211967468E0,7.566580469E0
2.475040641E0,-2.139183521E0,-2.919243574E-1,1.129412270E1,1.149863181E1
2.477416266E0,2.651247501E0,-1.397408366E0,9.537791252E0,9.997565975E0
2.479791891E0,-2.344966173E0,3.302095234E-1,8.714659691E0,9.030680938E0
2.482167516E0,1.148554921E0,-1.646261930E0,1.255753326E1,1.271695712E1
2.484543141E0,-3.684946895E-1,-1.004985496E-1,6.900900364E0,6.911462517E0
2.486918766E0,-5.455635786E-1,-1.172483087E0,1.355294704E1,1.361450439E1
2.489294391E0,1.311266780E0,-5.168496966E-1,6.642475605E0,6.790363491E0
2.491670016E0,-1.971685886E0,-5.694918036E-1,1.233739376E1,1.250692412E1
2.494045641E0,2.507678032E0,-9.284151793E-1,7.958528042E0,8.395747284E0
2.496421318E0,-2.196611166E0,2.632105052E-1,1.023649502E1,1.047283203E1
2.498796943E0,2.225325108E0,-1.655833244E0,1.060499001E1,1.096173657E1
2.501172568E0,-1.713261008E0,3.732803464E-1,7.762316704E0,7.957899353E0
2.503548193E0,2.488535494E-1,-1.488335729E0,1.328016567E1,1.336562275E1
2.505923818E0,4.354937077E-1,-2.344966233E-1,6.652047157E0,6.670410394E0
2.508299443E0,-1.359123230E0,-1.048056364E0,1.318445301E1,1.329569251E1
2.510675068E0,1.909472466E0,-5.742774606E-1,7.202396393E0,7.473312084E0
2.513050693E0,-2.230110645E0,-2.727817893E-1,1.142333508E1,1.164218140E1
2.515426318E0,2.617748022E0,-1.359123230E0,9.040083885E0,9.509097608E0
2.517801995E0,-2.143969059E0,3.589234054E-1,9.030512810E0,9.288465478E0
2.520177620E0,1.531406522E0,-1.737189293E0,1.210289669E1,1.232246489E1
2.522553245E0,-7.609176040E-1,1.579262912E-1,6.939185619E0,6.982566389E0
2.524928870E0,-4.689932466E-1,-1.359123230E0,1.354816151E1,1.362423762E1
2.527304443E0,1.335195065E0,-4.259224236E-1,6.881757736E0,7.023015400E0
2.529680120E0,-1.828116536E0,-8.374879360E-1,1.254796219E1,1.270805851E1
2.532055693E0,2.411965132E0,-8.901300430E-1,7.891529083E0,8.299767380E0
2.534431370E0,-2.191825628E0,-5.264209956E-2,1.035135078E1,1.058098927E1
2.536806995E0,2.550748825E0,-1.603191137E0,1.034177971E1,1.077167345E1
2.539182620E0,-1.722832322E0,3.397808075E-1,7.953742504E0,8.145282195E0
2.541558193E0,6.077769399E-1,-1.545763373E0,1.305524063E1,1.316047435E1
2.543933922E0,1.818545163E-1,-1.531406492E-1,6.503692150E0,6.508036164E0
2.546309547E0,-9.332008362E-1,-1.095912814E0,1.350030518E1,1.357682321E1
2.548685172E0,1.909472466E0,-6.939185858E-1,7.178467751E0,7.460429434E0
2.551060797E0,-2.105684042E0,-3.876372576E-1,1.180618668E1,1.199875876E1
2.553436422E0,2.526820660E0,-1.186840057E0,8.681160927E0,9.118989363E0
2.555812047E0,-2.115255117E0,1.339980662E-1,9.360722542E0,9.597676083E0
2.558187672E0,1.986042738E0,-1.746760488E0,1.160997581E1,1.190743786E1
2.560563297E0,-1.000199914E0,2.488535494E-1,7.192824841E0,7.266295971E0
2.562938922E0,-4.354937077E-1,-1.392622828E0,1.340937805E1,1.348853116E1
2.565314547E0,1.086341500E0,-3.684946895E-1,6.805187702E0,6.901195973E0
2.567690224E0,-1.627119422E0,-9.427721500E-1,1.293081379E1,1.306683903E1
2.570065849E0,2.182254314E0,-7.896314859E-1,7.915457249E0,8.248649297E0
2.572441474E0,-2.373680115E0,-5.264209956E-2,1.060020447E1,1.086284784E1
2.574817099E0,2.478964329E0,-1.631905079E0,9.844072342E0,1.028173811E1
2.577192724E0,-1.737189293E0,3.637090325E-1,8.336593628E0,8.523432655E0
2.579568349E0,8.279166222E-1,-1.679761529E0,1.264367485E1,1.278161017E1
2.581943974E0,-2.392822653E-1,9.571290761E-2,6.599404812E0,6.604434937E0
2.584319599E0,-1.124626637E0,-1.282552958E0,1.334237862E1,1.345097745E1
2.586695224E0,1.698904037E0,-4.785645306E-1,7.369893551E0,7.578299934E0
2.589070849E0,-2.177468538E0,-5.886343718E-1,1.208854008E1,1.229718101E1
2.591446526E0,2.220539331E0,-9.571290612E-1,8.518448830E0,8.854990764E0
2.593822151E0,-2.306680918E0,1.627119333E-1,9.547362328E0,9.823409767E0
2.596197776E0,2.158325911E0,-1.756331801E0,1.116491032E1,1.150644578E1
2.598573401E0,-1.249053478E0,3.158525825E-1,7.192824841E0,7.307299544E0
2.600949026E0,-2.249253243E-1,-1.406979680E0,1.345723438E1,1.353245508E1
2.603324651E0,6.652047038E-1,-2.344966233E-1,6.446264267E0,6.484736615E0
2.605700276E0,-1.526620865E0,-1.057627559E0,1.316530991E1,1.329565840E1
2.608075901E0,2.129612207E0,-7.034898400E-1,8.025527000E0,8.333020445E0
2.610451526E0,-2.364108801E0,-1.722832322E-1,1.100219822E1,1.125464604E1
2.612827151E0,2.306680918E0,-1.373480201E0,9.489934921E0,9.862357199E0
2.615202828E0,-1.923829436E0,1.962114573E-1,8.437092781E0,8.655873915E0
2.617578453E0,1.330409408E0,-1.679761529E0,1.238525009E1,1.256924850E1
2.619954078E0,-3.828516304E-1,1.483550072E-1,6.527620316E0,6.540520741E0
2.622329703E0,-1.100698471E0,-1.196411371E0,1.335195065E1,1.345055848E1
2.624705328E0,1.555334687E0,-5.359922647E-1,7.063612461E0,7.252652942E0
2.627080953E0,-1.832902193E0,-7.944171429E-1,1.262453270E1,1.278160612E1
2.629456578E0,2.273181438E0,-1.000199914E0,8.609375954E0,8.960418965E0
2.631832203E0,-2.450250387E0,8.135596663E-2,9.805787086E0,1.010761130E1
2.634207828E0,2.196611166E0,-1.804188251E0,1.076770210E1,1.113658855E1
2.636583453E0,-1.091127157E0,2.057827413E-1,7.546962738E0,7.628207626E0
2.638959078E0,1.435693651E-1,-1.584048629E0,1.315095329E1,1.324678809E1
2.641334755E0,4.785645306E-1,-9.571290761E-2,6.379265308E0,6.397906755E0
2.643710380E0,-1.694118381E0,-1.239482164E0,1.320359516E1,1.336941578E1
2.646086005E0,2.196611166E0,-7.848458290E-1,8.025527000E0,8.357641248E0
2.648461630E0,-2.249253273E0,-4.594219327E-1,1.145204926E1,1.167988189E1
2.650837255E0,2.306680918E0,-1.320838094E0,9.475577354E0,9.841339153E0
2.653212880E0,-2.225325108E0,7.657032460E-2,8.729017258E0,9.008533573E0
2.655588505E0,1.564906001E0,-1.962114573E0,1.210289669E1,1.236037753E1
2.657964130E0,-3.876372576E-1,4.785645381E-2,6.666403770E0,6.677835886E0
2.660339755E0,-9.332008362E-1,-1.378265858E0,1.349073410E1,1.359302715E1
2.662715432E0,1.239482164E0,-4.689932466E-1,6.757331371E0,6.886058231E0
2.665091057E0,-1.919043779E0,-1.033699393E0,1.280160141E1,1.298584853E1
2.667466682E0,2.330609322E0,-9.714859724E-1,8.829515457E0,9.183456213E0
2.669842307E0,-2.493321180E0,-1.339980662E-1,1.016471100E1,1.046689809E1
2.672217932E0,2.153540373E0,-1.756331801E0,1.054277611E1,1.090286960E1
2.674593557E0,-1.512263894E0,2.392822690E-2,7.618747234E0,7.767420683E0
2.676969286E0,6.508477330E-1,-1.593619823E0,1.318923855E1,1.330109922E1
2.679344807E0,3.637090325E-1,-2.105683982E-1,6.120840549E0,6.135251612E0
2.681720432E0,-1.641476393E0,-1.167697430E0,1.340459251E1,1.355511204E1
2.684096057E0,2.000399828E0,-7.130611539E-1,7.623532772E0,7.913804876E0
2.686471734E0,-2.053041935E0,-6.364908218E-1,1.197368431E1,1.216508190E1
2.688847359E0,2.397608280E0,-1.244267821E0,9.547362328E0,9.922139653E0
2.691222984E0,-2.421536446E0,6.699903309E-2,8.925228119E0,9.248136277E0
2.693598609E0,1.718046665E0,-1.871187329E0,1.183011532E1,1.209977912E1
2.695974234E0,-4.307080805E-1,4.785645287E-3,6.714260101E0,6.728062207E0
2.698349859E0,-4.402793646E-1,-1.450050473E0,1.346680546E1,1.355180215E1
2.700725484E0,1.186840057E0,-2.919243574E-1,6.379265308E0,6.495293298E0
2.703101109E0,-2.038684845E0,-1.038485050E0,1.292602825E1,1.312695294E1
2.705476734E0,2.478964329E0,-8.997012973E-1,8.709874153E0,9.100364516E0
2.707852359E0,-2.239681959E0,-3.062812984E-1,1.065284634E1,1.089004677E1
2.710228036E0,2.297109842E0,-1.569691658E0,1.049970531E1,1.086206505E1
2.712603661E0,-1.785045743E0,6.699903309E-2,7.810173035E0,8.011846230E0
2.714979286E0,9.858429432E-1,-1.804188251E0,1.283988667E1,1.300344843E1
2.717354911E0,4.689932466E-1,-1.292124242E-1,6.245266914E0,6.264184651E0
2.719730536E0,-1.387837172E0,-1.292124271E0,1.339502144E1,1.352857260E1
2.722106161E0,1.875972986E0,-6.077769399E-1,7.197610378E0,7.462858877E0
2.724481786E0,-2.057827473E0,-8.518448472E-1,1.224646664E1,1.244733862E1
2.726857411E0,2.560320139E0,-1.186840057E0,9.600004196E0,1.000619354E1
2.729233036E0,-2.416750908E0,-1.148554832E-1,9.389435768E0,9.696152885E0
2.731608713E0,1.904686809E0,-1.813759565E0,1.160519028E1,1.189949566E1
2.733984338E0,-7.513462901E-1,-1.387837082E-1,6.843472958E0,6.885993341E0
2.736359963E0,8.614161611E-2,-1.517049551E0,1.346680546E1,1.355225845E1
2.738735588E0,1.158126116E0,-4.115654826E-1,6.106483459E0,6.228947141E0
2.741111161E0,-1.981257200E0,-1.028913736E0,1.316052437E1,1.334853719E1
2.743486838E0,2.416750908E0,-8.997012973E-1,8.226524353E0,8.621244128E0
2.745862463E0,-2.120040894E0,-4.833501875E-1,1.116969585E1,1.137938075E1
2.748238088E0,2.474178553E0,-1.560120344E0,1.045184898E1,1.085341800E1
2.750613713E0,-1.976471543E0,5.264209956E-2,8.106883049E0,8.344505002E0
2.752989338E0,1.148554921E0,-1.775474429E0,1.259581852E1,1.277208409E1
2.755365016E0,2.344966233E-1,-1.914258152E-1,6.111268997E0,6.118761416E0
2.757740641E0,-8.997012973E-1,-1.296909928E0,1.353859043E1,1.363029232E1
2.760116266E0,1.861616015E0,-5.264210105E-1,6.656832695E0,6.932254669E0
2.762491891E0,-2.354537487E0,-7.226324677E-1,1.243310642E1,1.267470630E1
2.764867516E0,2.670390129E0,-1.067198873E0,9.288937569E0,9.723901379E0
2.767243141E0,-2.196611166E0,-8.135596663E-2,9.815358162E0,1.005847778E1
2.769618766E0,2.086541414E0,-1.679761529E0,1.144726372E1,1.175649184E1
2.771994391E0,-1.186840057E0,8.135596663E-2,6.987041950E0,7.087592210E0
2.774370016E0,2.344966233E-1,-1.531406522E0,1.310788250E1,1.319912036E1
2.776745641E0,1.158126116E0,-2.153540403E-1,6.025127411E0,6.139201396E0
2.779121318E0,-1.722832322E0,-1.105484009E0,1.312702465E1,1.328566981E1
2.781496943E0,2.340180635E0,-5.312066078E-1,7.695317745E0,8.060802756E0
2.783872568E0,-2.388036966E0,-3.780659735E-1,1.133719349E1,1.159213572E1
2.786248193E0,2.646461725E0,-1.344766378E0,1.029870892E1,1.071800175E1
2.788623818E0,-2.062613010E0,3.349951655E-2,8.417949677E0,8.667027830E0
2.790999443E0,1.316052437E0,-1.584048629E0,1.253839111E1,1.270639429E1
2.793375068E0,-1.914258152E-1,-8.614161611E-2,6.053841114E0,6.057479381E0
2.795750693E0,-5.790630579E-1,-1.301695466E0,1.344287777E1,1.351816141E1
2.798126318E0,1.871187329E0,-5.359922647E-1,6.336194515E0,6.628422939E0
2.800501943E0,-2.330609322E0,-6.173482537E-1,1.269631672E1,1.292320846E1
2.802877516E0,2.512463808E0,-1.009771109E0,8.719446182E0,9.130216526E0
2.805253245E0,-2.282752752E0,-2.249253243E-1,1.028435135E1,1.053705055E1
2.807628870E0,2.273181438E0,-1.617548108E0,1.136112213E1,1.169867137E1
2.810004495E0,-1.493121386E0,-4.785645381E-2,7.393822193E0,7.543229304E0
2.812380120E0,4.211367965E-1,-1.512263894E0,1.306959724E1,1.316353564E1
2.814755745E0,8.327022791E-1,-4.307080805E-1,5.675775528E0,5.752680278E0
2.817131370E0,-1.363908887E0,-1.115055323E0,1.353859043E1,1.365272964E1
2.819506995E0,2.421536446E0,-7.274180651E-1,7.092326164E0,7.529546216E0
2.821882620E0,-2.536391973E0,-3.254238665E-1,1.176311588E1,1.203786028E1
2.824258245E0,2.665604353E0,-1.440479279E0,9.901499748E0,1.035471508E1
2.826633922E0,-1.938186288E0,-1.004985496E-1,9.102297783E0,9.306905553E0
2.829009547E0,1.617548108E0,-1.761117458E0,1.241874981E1,1.264687089E1
2.831385172E0,-4.115654826E-1,-1.435693651E-1,6.393621922E0,6.408463122E0
2.833760797E0,-3.876372576E-1,-1.402194023E0,1.332323647E1,1.340242667E1
2.836136422E0,1.947757602E0,-5.790630579E-1,6.173482418E0,6.499304491E0
2.838512047E0,-2.029113531E0,-9.379864931E-1,1.288774300E1,1.308017737E1
2.840887672E0,2.689532757E0,-8.901300430E-1,8.360522270E0,8.827471358E0
2.843263297E0,-2.469393015E0,-2.249253243E-1,1.044227791E1,1.073264465E1
2.845638870E0,2.474178553E0,-1.746760488E0,1.140897846E1,1.180413153E1
2.848014547E0,-1.397408366E0,-1.579262912E-1,7.709674358E0,7.836885196E0
2.850390224E0,5.886343718E-1,-1.540977836E0,1.314138222E1,1.324450942E1
2.852765849E0,5.168496966E-1,-4.019941986E-1,5.848058701E0,5.884600540E0
2.855141474E0,-1.162911773E0,-1.296909928E0,1.324666595E1,1.336070724E1
2.857517099E0,2.507678032E0,-7.226324677E-1,6.991827965E0,7.462995718E0
2.859892724E0,-2.416750908E0,-3.876372576E-1,1.196889877E1,1.221660695E1
2.862268349E0,2.541177750E0,-1.296909928E0,9.437292099E0,9.859109589E0
2.864643974E0,-2.182254314E0,-1.004985496E-1,9.351150513E0,9.602934435E0
2.867019599E0,1.794616938E0,-1.732403636E0,1.246660614E1,1.271369895E1
2.869395224E0,-6.364908218E-1,-1.674975902E-1,6.733402729E0,6.765492467E0
2.871770901E0,-3.828516304E-1,-1.296909928E0,1.328973675E1,1.335835520E1
2.874146526E0,1.564906001E0,-6.364908218E-1,5.986842155E0,6.220637456E0
2.876522151E0,-1.636690736E0,-8.949156404E-1,1.306002617E1,1.319257041E1
2.878897776E0,2.689532757E0,-9.427721500E-1,7.867600918E0,8.367888024E0
2.881273401E0,-2.579462767E0,6.699903309E-2,1.073420238E1,1.103998269E1
2.883649026E0,2.431107759E0,-1.737189293E0,1.087777138E1,1.128069243E1
2.886024651E0,-1.368694544E0,-5.264209956E-2,8.183453560E0,8.297289203E0
2.888400276E0,8.327022791E-1,-1.550549030E0,1.322273827E1,1.333935541E1
2.890775901E0,3.062812984E-1,-2.440679073E-1,6.053841114E0,6.066495662E0
2.893151526E0,-1.067198873E0,-1.138983607E0,1.315095329E1,1.324325374E1
2.895527203E0,2.536391973E0,-7.657032609E-1,6.809973240E0,7.307210224E0
2.897902828E0,-2.091326952E0,-3.589234054E-1,1.211725426E1,1.230163913E1
2.900278453E0,2.742174864E0,-1.215553880E0,9.111868858E0,9.592874872E0
2.902654078E0,-2.407179594E0,1.004985496E-1,9.332008362E0,9.637997386E0
2.905029703E0,1.942971945E0,-1.808973908E0,1.250967693E1,1.278825803E1
2.907405328E0,-5.264210105E-1,-1.818545163E-1,6.991827965E0,7.013975223E0
2.909780953E0,-2.009970993E-1,-1.268195987E0,1.344766331E1,1.350882561E1
2.912156578E0,1.306481123E0,-5.407779217E-1,5.986842155E0,6.151553680E0
2.914532203E0,-1.617548108E0,-1.009771109E0,1.281117249E1,1.295230636E1
2.916907828E0,2.818745136E0,-8.614161611E-1,7.915457249E0,8.446409024E0
2.919283505E0,-2.536391973E0,-5.742774159E-2,1.078684425E1,1.108118185E1
2.921659130E0,2.383251429E0,-1.593619823E0,1.060977554E1,1.099030703E1
2.924034755E0,-1.689332843E0,-4.785645381E-2,8.283951759E0,8.454584108E0
2.926410380E0,9.379864931E-1,-1.607976794E0,1.337587833E1,1.350479653E1
2.928786005E0,1.196411327E-1,-2.823530734E-1,6.312266350E0,6.319710731E0
2.931161630E0,-1.167697430E0,-1.158126116E0,1.320359516E1,1.330562658E1
2.933537255E0,2.143969059E0,-7.992027402E-1,6.623332977E0,7.007415221E0
2.935912880E0,-1.952543259E0,-5.168496966E-1,1.228475189E1,1.244968625E1
2.938288505E0,2.713460922E0,-1.344766378E0,8.757730484E0,9.266558693E0
2.940664182E0,-2.560320139E0,2.775674164E-1,9.619147301E0,9.957925370E0
2.943039807E0,1.741974831E0,-1.852044702E0,1.196889877E1,1.223597498E1
2.945415432E0,-7.130611539E-1,-1.866401732E-1,7.432106972E0,7.468567788E0
2.947791057E0,-5.742774159E-2,-1.402194023E0,1.345723438E1,1.353021076E1
2.950166682E0,9.762716293E-1,-5.455635786E-1,6.230910301E0,6.330480953E0
2.952542307E0,-1.799402595E0,-9.475577474E-1,1.276810169E1,1.292904235E1
2.954917932E0,2.632104874E0,-1.004985452E0,7.499105930E0,8.010902669E0
2.957293557E0,-2.206182480E0,2.392822690E-2,1.106919765E1,1.128693716E1
2.959669182E0,2.440679073E0,-1.641476393E0,1.011206818E1,1.053115767E1
2.962044807E0,-2.091326952E0,1.627119333E-1,8.384450912E0,8.642866463E0
2.964420432E0,8.757730722E-1,-1.713261008E0,1.315573883E1,1.329570254E1
2.966796109E0,1.866401732E-1,-2.919243574E-1,6.608976364E0,6.618052808E0
2.969171734E0,-1.076770186E0,-1.196411371E0,1.328495121E1,1.338210607E1
2.971547359E0,1.866401672E0,-6.795616150E-1,6.632904530E0,6.923920977E0
2.973922984E0,-2.048256159E0,-6.652047038E-1,1.195932770E1,1.215168176E1
2.976298609E0,2.790031195E0,-1.229910851E0,8.815158844E0,9.327592412E0
2.978674234E0,-2.536391973E0,1.674975902E-1,9.480362892E0,9.815223902E0
2.981049859E0,1.689332843E0,-1.765903115E0,1.176311588E1,1.201428960E1
2.983425484E0,-1.019342422E0,-9.571290761E-2,7.389036179E0,7.459629722E0
2.985801109E0,-3.349951655E-2,-1.469193101E0,1.369173145E1,1.377037257E1
2.988176786E0,7.704889178E-1,-5.264210105E-1,6.379265308E0,6.447154266E0
2.990552411E0,-1.852044702E0,-9.236295223E-1,1.280638695E1,1.297253667E1
2.992928036E0,2.354537487E0,-9.236295223E-1,7.451249599E0,7.868802886E0
2.995303661E0,-2.201396942E0,-2.153540403E-1,1.099741268E1,1.121764733E1
2.997679286E0,2.522035122E0,-1.679761529E0,9.939785004E0,1.039141886E1
3.000054911E0,-2.206182480E0,2.440679073E-1,8.422736168E0,8.710298206E0
3.002430536E0,6.939185858E-1,-1.727617979E0,1.294038486E1,1.307362793E1
3.004806161E0,9.571290575E-3,-3.541377485E-1,6.843472958E0,6.852636520E0
3.007181786E0,-9.475577474E-1,-1.263410330E0,1.345723438E1,1.354958407E1
3.009557359E0,1.651047587E0,-7.178468108E-1,6.929614544E0,7.159666187E0
3.011933088E0,-2.120040894E0,-6.077769399E-1,1.201675510E1,1.221746166E1
3.014308713E0,2.574677229E0,-1.282552958E0,8.513663292E0,8.986454672E0
3.016684338E0,-2.210968018E0,1.962114573E-1,9.844072342E0,1.009121592E1
3.019059963E0,1.947757602E0,-1.909472466E0,1.137547874E1,1.169792124E1
3.021435588E0,-1.172483087E0,1.674975902E-1,7.494320393E0,7.587332217E0
3.023811213E0,-1.387837082E-1,-1.531406522E0,1.344287777E1,1.353053693E1
3.026186838E0,1.081555843E0,-4.354937077E-1,6.848258495E0,6.946802303E0
3.028562463E0,-1.598405480E0,-9.954141974E-1,1.287338543E1,1.301037286E1
3.030938088E0,2.311466694E0,-8.087740541E-1,7.633104324E0,8.016313079E0
3.033313713E0,-2.139183521E0,-1.244267747E-1,1.089212894E1,1.110090362E1
3.035689391E0,2.737389088E0,-1.631905079E0,9.839286804E0,1.034253248E1
3.038065016E0,-1.847259045E0,2.967100143E-1,8.327022552E0,8.534618175E0
3.040440641E0,9.571290612E-1,-1.588834286E0,1.279202938E1,1.292580775E1
3.042816266E0,1.435693540E-2,-1.004985496E-1,6.652047157E0,6.652821767E0
3.045191891E0,-7.417750359E-1,-1.201196909E0,1.349073410E1,1.356440234E1
3.047567516E0,1.847259045E0,-5.934200287E-1,7.125825882E0,7.385249340E0
3.049943141E0,-1.990828395E0,-4.785645306E-1,1.200239849E1,1.217579530E1
3.052318766E0,2.603390932E0,-1.062413216E0,8.504091263E0,8.956893122E0
3.054694391E0,-2.091326952E0,1.722832322E-1,9.461220741E0,9.691131402E0
3.057070068E0,2.191825628E0,-1.684547186E0,1.135633659E1,1.168795019E1
3.059445693E0,-1.004985452E0,3.493520916E-1,7.240681171E0,7.318436067E0
3.061821318E0,-2.823530734E-1,-1.339980721E0,1.327538013E1,1.334582292E1
3.064196943E0,1.004985452E0,-2.823530734E-1,6.690331936E0,6.771282037E0
3.066572568E0,-1.488335729E0,-9.332008362E-1,1.304566860E1,1.316341431E1
3.068948193E0,2.230110645E0,-7.417750359E-1,7.872386456E0,8.215722257E0
3.071323818E0,-2.349751949E0,0.000000000E0,1.072941685E1,1.098370248E1
3.073699443E0,2.464607239E0,-1.579262972E0,9.690931320E0,1.012336457E1
3.076075068E0,-1.660618901E0,3.732803464E-1,8.293522835E0,8.466375515E0
3.078450693E0,9.092726111E-1,-1.722832322E0,1.256710434E1,1.271719463E1
3.080826318E0,-1.052841991E-1,1.531406492E-1,6.546762943E0,6.549400114E0
3.083201995E0,-1.201196909E0,-1.268195987E0,1.333280754E1,1.344674503E1
3.085577620E0,1.861616015E0,-5.599204898E-1,7.460821152E0,7.709927198E0
3.087953245E0,-2.091326952E0,-6.269195080E-1,1.200239849E1,1.219935433E1
3.090328870E0,2.383251429E0,-1.057627559E0,8.824729919E0,9.201865114E0
3.092704495E0,-2.378465652E0,1.148554832E-1,9.293723106E0,9.593934533E0
3.095080120E0,2.115255117E0,-1.871187329E0,1.138504982E1,1.173008975E1
3.097455745E0,-8.087740541E-1,2.105683982E-1,7.077969551E0,7.127138801E0
3.099831370E0,-3.828516304E-1,-1.411765337E0,1.334716511E1,1.342707984E1
3.102206995E0,8.709874153E-1,-3.349951804E-1,6.561119556E0,6.627151023E0
3.104582620E0,-1.636690736E0,-1.124626637E0,1.296909904E1,1.312025425E1
3.106958297E0,2.344966173E0,-7.848458290E-1,8.360522270E0,8.718553892E0
3.109333922E0,-2.407179594E0,-1.770688742E-1,1.067198944E1,1.094153671E1
3.111709547E0,2.344966173E0,-1.507478237E0,9.973284721E0,1.035556687E1
3.114085172E0,-1.694118381E0,1.196411327E-1,7.982456207E0,8.161124812E0
3.116460797E0,1.062413216E0,-1.641476393E0,1.281595802E1,1.296425650E1
3.118836422E0,6.699903309E-2,1.435693540E-2,6.230910301E0,6.231287040E0
3.121212047E0,-1.421336651E0,-1.205982566E0,1.333280754E1,1.346247929E1
3.123587672E0,1.823330879E0,-5.503492355E-1,7.312466145E0,7.556426463E0
3.125963297E0,-1.919043779E0,-6.939185858E-1,1.229910851E1,1.246724998E1
3.128338974E0,2.354537487E0,-1.095912814E0,9.011369705E0,9.378147772E0
3.130714599E0,-2.450250387E0,1.627119333E-1,9.336793900E0,9.654321439E0
3.133090224E0,1.895115495E0,-1.813759565E0,1.129412270E1,1.159475718E1
3.135465849E0,-7.226324677E-1,1.483550072E-1,6.934400082E0,6.973529335E0
3.137841474E0,-2.201396823E-1,-1.445264935E0,1.334237862E1,1.342223228E1
3.140217099E0,9.667003751E-1,-1.387837082E-1,6.254838467E0,6.330621990E0
3.142592724E0,-2.043470621E0,-1.038485050E0,1.292124271E1,1.312298505E1
3.144968349E0,2.411965132E0,-7.465606928E-1,8.446663857E0,8.815954796E0
3.147343974E0,-2.268395901E0,-1.962114573E-1,1.077248764E1,1.101047723E1
3.149719599E0,2.277967215E0,-1.383051515E0,1.008814049E1,1.043420072E1
3.152095276E0,-1.875972986E0,2.632105052E-1,7.877171993E0,8.101752466E0
3.154470901E0,1.004985452E0,-1.679761529E0,1.255753326E1,1.270917921E1
3.156846526E0,2.967100143E-1,1.004985496E-1,6.154339790E0,6.162307607E0
3.159222151E0,-1.359123230E0,-1.138983607E0,1.333759308E1,1.345495778E1
3.161597776E0,1.785045743E0,-3.493520916E-1,6.943971157E0,7.178242864E0
3.163973401E0,-2.163111687E0,-6.173482537E-1,1.224646664E1,1.245134997E1
3.166349026E0,2.565105915E0,-8.901300430E-1,9.351150513E0,9.737356713E0
3.168724651E0,-2.440679073E0,1.196411327E-1,9.260223389E0,9.577210739E0
3.171100276E0,1.837687731E0,-1.526620865E0,1.142333508E1,1.167048635E1
3.173475901E0,-7.992027402E-1,1.339980662E-1,6.632904530E0,6.682222909E0
3.175851578E0,-1.914258115E-2,-1.249053478E0,1.334716511E1,1.340549579E1
3.178227203E0,1.191625714E0,-1.962114573E-1,5.900700569E0,6.023017349E0
3.180602828E0,-2.029113531E0,-7.704889178E-1,1.304566860E1,1.322499241E1
3.182978453E0,2.435893536E0,-6.652047038E-1,8.102097511E0,8.486463262E0
3.185354078E0,-2.234896421E0,-1.339980662E-1,1.096391296E1,1.119017895E1
3.187729703E0,2.450250387E0,-1.383051515E0,1.046142101E1,1.083318458E1
3.190105328E0,-1.813759565E0,2.727817893E-1,7.944170952E0,8.153158025E0
3.192480953E0,9.714859724E-1,-1.569691658E0,1.262931824E1,1.276351817E1
3.194856578E0,4.546363056E-1,-4.785645381E-2,5.943771362E0,5.961325559E0
3.197232203E0,-1.028913736E0,-1.095912814E0,1.342373466E1,1.350764009E1
3.199607880E0,2.210968018E0,-4.163511395E-1,6.805187702E0,7.167447768E0
3.201983505E0,-2.368894339E0,-4.402793646E-1,1.206939697E1,1.230755254E1
3.204359130E0,2.694318295E0,-1.071984529E0,9.528220177E0,9.959692849E0
3.206734755E0,-2.043470621E0,2.392822690E-2,9.442078590E0,9.660703538E0
3.209110380E0,1.880758643E0,-1.612762451E0,1.174397373E1,1.200246536E1
3.211486005E0,-7.657032609E-1,1.196411327E-1,6.781259537E0,6.825400823E0
3.213861630E0,-9.571290575E-3,-1.373480201E0,1.307438278E1,1.314633122E1
3.216237255E0,1.593619823E0,-2.440679073E-1,6.096911907E0,6.306467164E0
3.218612880E0,-1.957328916E0,-8.327022791E-1,1.297388458E1,1.314709895E1
3.220988505E0,2.560320139E0,-6.364908218E-1,8.039883614E0,8.461683538E0
3.223364182E0,-2.373680115E0,-1.483550072E-1,1.084905815E1,1.110668399E1
3.225739807E0,2.569891453E0,-1.450050473E0,1.082034397E1,1.121547289E1
3.228115432E0,-1.756331801E0,1.100698411E-1,7.963313580E0,8.155438672E0
3.230491057E0,8.327022791E-1,-1.464407444E0,1.281117249E1,1.292145590E1
3.232866682E0,3.062812984E-1,-1.339980662E-1,5.848058701E0,5.857606532E0
3.235242307E0,-9.523434043E-1,-1.143769264E0,1.336152172E1,1.344415965E1
3.237617932E0,2.220539331E0,-5.455635786E-1,6.661618233E0,7.043123740E0
3.239993557E0,-2.483749866E0,-2.727817893E-1,1.219861031E1,1.245188808E1
3.242369182E0,2.507678032E0,-1.162911773E0,9.188439369E0,9.595219171E0
3.244744859E0,-2.301895380E0,-7.178468257E-2,9.518648148E0,9.793290455E0
3.247120484E0,1.890329838E0,-1.651047587E0,1.215553856E1,1.241194677E1
3.249496109E0,-9.619147182E-1,0.000000000E0,6.771687984E0,6.839666518E0
3.251871734E0,-3.732803464E-1,-1.320838094E0,1.322752380E1,1.329854644E1
3.254247359E0,1.383051515E0,-5.455635786E-1,5.915057659E0,6.099047321E0
3.256622984E0,-1.895115495E0,-8.757730722E-1,1.313181114E1,1.329672535E1
3.258998609E0,2.469393015E0,-8.805587292E-1,7.877171993E0,8.301995191E0
3.261374234E0,-2.785245657E0,-9.571290575E-3,1.087777138E1,1.122869517E1
3.263749859E0,2.249253273E0,-1.727617979E0,1.076770210E1,1.113495455E1
3.266125484E0,-1.703689694E0,-5.264209956E-2,8.350951195E0,8.523128277E0
3.268501161E0,6.269195080E-1,-1.665404558E0,1.305045509E1,1.317121781E1
3.270876786E0,6.699903309E-2,-3.732803464E-1,6.063412666E0,6.075261332E0
3.273252411E0,-1.397408366E0,-1.301695466E0,1.325623703E1,1.339309454E1
3.275628036E0,2.282752752E0,-8.135597110E-1,6.953542709E0,7.363735176E0
3.278003661E0,-2.536391973E0,-5.886343718E-1,1.213161087E1,1.240789092E1
3.280379286E0,2.426322222E0,-1.344766378E0,9.312865257E0,9.717247318E0
3.282754911E0,-2.660818815E0,-1.579262912E-1,9.375079155E0,9.746640788E0
3.285130536E0,1.622333765E0,-1.962114573E0,1.259581852E1,1.285054492E1
3.287506213E0,-8.231309652E-1,-3.397808075E-1,6.958328247E0,7.015078587E0
3.289881786E0,-6.891329288E-1,-1.426122308E0,1.339980698E1,1.349309290E1
3.292257463E0,1.205982566E0,-7.274180651E-1,6.044270039E0,6.206184922E0
3.294633036E0,-1.928615093E0,-1.153340459E0,1.298345566E1,1.317648934E1
3.297008713E0,2.502892494E0,-1.095912814E0,7.996813297E0,8.450711133E0
3.299384338E0,-2.895315409E0,-7.178468257E-2,1.075813103E1,1.114115737E1
3.301759963E0,1.971685886E0,-1.842473388E0,1.087777138E1,1.120750479E1
3.304135588E0,-1.732403636E0,-2.440679073E-1,8.216953278E0,8.401137582E0
3.306511213E0,4.307080805E-1,-1.651047587E0,1.349551964E1,1.360295989E1
3.308886838E0,9.092725813E-2,-5.647061467E-1,6.230910301E0,6.257108276E0
3.311262463E0,-1.636690736E0,-1.239482164E0,1.315573883E1,1.331497416E1
3.313638141E0,2.153540373E0,-9.619147182E-1,6.853044033E0,7.247567080E0
3.316013766E0,-2.249253273E0,-4.307080805E-1,1.214118195E1,1.235528020E1
3.318389391E0,2.407179594E0,-1.550549030E0,9.116654396E0,9.555736668E0
3.320765016E0,-2.723032236E0,2.344966233E-1,9.327222824E0,9.719412474E0
3.323140641E0,1.383051515E0,-2.019542217E0,1.252403355E1,1.276098737E1
3.325516266E0,-5.024927258E-1,-2.105683982E-1,7.188039303E0,7.208657781E0
3.327891891E0,-6.987041831E-1,-1.406979680E0,1.345723438E1,1.354861383E1
3.330267516E0,1.277767301E0,-6.843472719E-1,6.436692715E0,6.597880991E0
3.332643141E0,-2.057827473E0,-9.332008362E-1,1.253839111E1,1.274035986E1
3.335018766E0,2.689532757E0,-1.191625714E0,8.164310455E0,8.678105986E0
3.337394391E0,-2.440679073E0,-1.914258115E-2,1.051406288E1,1.079364624E1
3.339770068E0,2.129612207E0,-1.818545222E0,1.093998528E1,1.129272477E1
3.342145693E0,-1.631905079E0,-9.571290761E-2,8.063812256E0,8.227839525E0
3.344521266E0,4.163511395E-1,-1.684547186E0,1.347159195E1,1.358288766E1
3.346896943E0,6.077769399E-1,-5.551348329E-1,6.671189308E0,6.721780588E0
3.349272568E0,-1.502692580E0,-1.220339537E0,1.314616776E1,1.328792836E1
3.351648193E0,2.268395901E0,-9.906286001E-1,7.250252724E0,7.661144141E0
3.354023818E0,-2.057827473E0,-5.503492355E-1,1.147597694E1,1.167200004E1
3.356399443E0,2.785245657E0,-1.598405480E0,9.600004196E0,1.012287380E1
3.358775068E0,-2.191825628E0,6.699903309E-2,8.906085968E0,9.172074778E0
3.361150745E0,1.196411371E0,-1.919043779E0,1.263888931E1,1.283961262E1
3.363526370E0,-2.105683982E-1,-2.871387303E-1,7.092326164E0,7.101258911E0
3.365901995E0,-5.455635786E-1,-1.493121386E0,1.361994648E1,1.371240290E1
3.368277620E0,1.569691658E0,-7.848458290E-1,6.838686943E0,7.060280021E0
3.370653245E0,-1.952543259E0,-8.279166222E-1,1.241396427E1,1.259382309E1
3.373028870E0,2.603390932E0,-1.296909928E0,8.212167740E0,8.712021505E0
3.375404495E0,-2.100898266E0,-6.699903309E-2,1.017906761E1,1.039382893E1
3.377780120E0,2.311466694E0,-2.019542217E0,1.107876873E1,1.149611002E1
3.380155745E0,-1.320838094E0,1.483550072E-1,7.733603001E0,7.846989095E0
3.382531422E0,-1.435693540E-2,-1.679761529E0,1.332802200E1,1.343346476E1
3.384907047E0,9.858429432E-1,-5.312066078E-1,6.886543751E0,6.977001620E0
3.387282672E0,-1.454836130E0,-1.225125194E0,1.299302673E1,1.313149739E1
3.389658297E0,2.225325108E0,-8.805587292E-1,7.709674358E0,8.072579156E0
3.392033922E0,-2.163111687E0,-2.679961324E-1,1.096391296E1,1.117847313E1
3.394409547E0,2.660818815E0,-1.694118381E0,9.595218658E0,1.010040667E1
3.396785172E0,-1.808973908E0,2.488535494E-1,8.609375954E0,8.800890239E0
3.399160797E0,1.076770186E0,-1.770688772E0,1.254796219E1,1.271794511E1
3.401536422E0,-9.571290761E-2,-7.657032460E-2,6.690331936E0,6.691454654E0
3.403912047E0,-8.518448472E-1,-1.378265858E0,1.332323647E1,1.342139659E1
3.406287724E0,1.928615093E0,-6.029912829E-1,7.374679565E0,7.646505957E0
3.408663349E0,-1.938186288E0,-6.987041831E-1,1.194975662E1,1.212606436E1
3.411038974E0,2.560320139E0,-1.115055323E0,8.547162056E0,8.991805536E0
3.413414599E0,-2.029113531E0,3.828516230E-2,9.437292099E0,9.653043543E0
3.415790224E0,2.273181438E0,-1.828116536E0,1.131326580E1,1.168329350E1
3.418165849E0,-7.896314859E-1,1.818545163E-1,7.077969551E0,7.124201142E0
3.420541474E0,-1.579262912E-1,-1.406979680E0,1.335673618E1,1.343156484E1
3.422917099E0,1.201196909E0,-4.211367965E-1,6.503692150E0,6.627083959E0
3.425292724E0,-1.282552958E0,-1.081555843E0,1.314616776E1,1.325278958E1
3.427668349E0,2.536391973E0,-8.614161611E-1,8.011170387E0,8.447139931E0
3.430044026E0,-2.076970100E0,-8.614161611E-2,1.067198944E1,1.087256105E1
3.432419651E0,2.689532757E0,-1.655833244E0,9.915857315E0,1.040670920E1
3.434795276E0,-1.215553880E0,1.052841991E-1,8.082955360E0,8.174522821E0
3.437170901E0,1.182054400E0,-1.708475351E0,1.275853062E1,1.292657124E1
3.439546474E0,4.259224236E-1,1.914258115E-2,6.307480335E0,6.321873498E0
3.441922151E0,-1.067198873E0,-1.330409408E0,1.328016567E1,1.338923832E1
3.444297776E0,2.359323025E0,-6.699903607E-1,7.542177200E0,7.930934947E0
3.446673401E0,-1.741974831E0,-7.034898400E-1,1.201675510E1,1.216272081E1
3.449049026E0,2.737389088E0,-1.263410330E0,9.097511292E0,9.584060537E0
3.451424651E0,-2.033899307E0,6.221338734E-2,9.064012527E0,9.289614631E0
3.453800328E0,2.100898266E0,-1.995614052E0,1.158604717E1,1.194289488E1
3.456175953E0,-2.009970993E-1,1.339980662E-1,6.896114826E0,6.900344557E0
3.458551578E0,-4.067798555E-1,-1.502692580E0,1.332323647E1,1.341388030E1
3.460927203E0,1.454836130E0,-3.684946895E-1,6.518048763E0,6.688594485E0
3.463302828E0,-1.746760488E0,-1.086341500E0,1.287338543E1,1.303669293E1
3.465678453E0,2.665604353E0,-8.805587292E-1,8.714659691E0,9.155660750E0
3.468054078E0,-2.311466694E0,-1.914258152E-1,1.036092186E1,1.061735484E1
3.470429703E0,2.335394859E0,-1.689332843E0,1.055713367E1,1.094353627E1
3.472805328E0,-1.397408366E0,4.785645381E-2,7.623532772E0,7.750696247E0
3.475180953E0,7.130611539E-1,-1.713261008E0,1.307438278E1,1.320542330E1
3.477556630E0,5.551348329E-1,-2.057827413E-1,6.025127411E0,6.054145814E0
3.479932255E0,-1.751546144E0,-1.158126116E0,1.338544941E1,1.354914853E1
3.482307880E0,2.115255117E0,-7.226324677E-1,7.566105366E0,7.889388589E0
3.484683505E0,-2.163111687E0,-6.029912829E-1,1.184447193E1,1.205546208E1
3.487059130E0,2.411965132E0,-1.335195065E0,9.805787086E0,1.018596005E1
3.489434755E0,-2.378465652E0,6.221338734E-2,8.781659126E0,9.098269417E0
3.491810380E0,1.320838094E0,-1.775474429E0,1.204068375E1,1.224234405E1
3.494186005E0,-2.919243574E-1,-9.571290761E-2,6.412764549E0,6.420119154E0
3.496561630E0,-6.939185858E-1,-1.339980721E0,1.351466274E1,1.359864627E1
3.498937307E0,1.560120344E0,-4.402793646E-1,6.364908218E0,6.568095465E0
3.501312932E0,-2.455035925E0,-7.657032609E-1,1.279202938E1,1.304796990E1
3.503688557E0,2.445464849E0,-9.954141974E-1,8.829515457E0,9.215828284E0
3.506064182E0,-2.378465652E0,-8.135596663E-2,1.027956581E1,1.055145445E1
3.508439807E0,2.115255117E0,-1.741974831E0,1.112183952E1,1.145443560E1
3.510815432E0,-1.445264935E0,8.614161611E-2,7.221538544E0,7.365244738E0
3.513191057E0,2.488535494E-1,-1.603191137E0,1.303131199E1,1.313191692E1
3.515566682E0,1.095912814E0,-2.967100143E-1,6.034698486E0,6.140573878E0
3.517942307E0,-1.746760488E0,-1.172483087E0,1.321795273E1,1.338432528E1
3.520317932E0,2.368894339E0,-6.077769399E-1,7.609176159E0,7.992534955E0
3.522693609E0,-2.431107759E0,-4.259224236E-1,1.143769264E1,1.170096183E1
3.525069234E0,2.589034081E0,-1.478764415E0,1.038006496E1,1.079979585E1
3.527444859E0,-1.904686809E0,-5.742774159E-2,8.504091263E0,8.714969764E0
3.529820484E0,1.162911773E0,-1.622333765E0,1.256710434E1,1.272463917E1
3.532196109E0,-5.742774159E-2,-1.387837082E-1,6.077769279E0,6.079624847E0
3.534571734E0,-7.034898400E-1,-1.373480201E0,1.339980698E1,1.348837176E1
3.536947359E0,2.177468538E0,-6.508477330E-1,6.465406895E0,6.853207885E0
3.539322984E0,-2.407179594E0,-5.551348329E-1,1.255274773E1,1.279352038E1
3.541698609E0,2.569891453E0,-1.134197950E0,8.858229637E0,9.292953211E0
3.544074234E0,-2.268395901E0,-1.483550072E-1,9.973284721E0,1.022907803E1
3.546449911E0,2.134397745E0,-1.765903115E0,1.183011532E1,1.215013152E1
3.548825536E0,-1.057627559E0,-8.135596663E-2,7.092326164E0,7.171212259E0
3.551201161E0,-6.699903309E-2,-1.416550994E0,1.311745358E1,1.319388851E1
3.553576786E0,1.215553880E0,-5.551348329E-1,5.761917114E0,5.914848667E0
3.555952411E0,-1.622333765E0,-9.858429432E-1,1.336152172E1,1.349570731E1
3.558328036E0,2.545963287E0,-8.470591903E-1,7.475177765E0,7.942148384E0
3.560703661E0,-2.675175667E0,-9.571290575E-3,1.118883896E1,1.150420678E1
3.563079286E0,2.426322222E0,-1.674975872E0,1.050927734E1,1.091501232E1
3.565454963E0,-1.727617979E0,-9.571290575E-3,8.470592499E0,8.644980785E0
3.567830588E0,8.518448472E-1,-1.641476393E0,1.294995594E1,1.308133951E1
3.570206213E0,1.435693540E-2,-2.153540403E-1,6.087340832E0,6.091165889E0
3.572581838E0,-1.191625714E0,-1.277767301E0,1.319880962E1,1.331394895E1
3.574957463E0,2.316252232E0,-7.082754970E-1,6.618547440E0,7.047825820E0
3.577333088E0,-2.344966173E0,-4.785645306E-1,1.216032505E1,1.239360302E1
3.579708713E0,2.589034081E0,-1.177268744E0,8.958727837E0,9.399354425E0
3.582084338E0,-2.651247501E0,7.178468257E-2,9.432506561E0,9.798287931E0
3.584459963E0,1.818545222E0,-1.804188251E0,1.237089348E1,1.263333715E1
3.586835588E0,-7.274180651E-1,-1.004985496E-1,6.920042992E0,6.958895890E0
3.589211266E0,-4.498506486E-1,-1.249053478E0,1.338544941E1,1.345112471E1
3.591586891E0,1.301695466E0,-5.024927258E-1,5.900700569E0,6.063429494E0
3.593962516E0,-1.832902193E0,-9.379864931E-1,1.283988667E1,1.300392397E1
3.596338141E0,2.775674343E0,-8.901300430E-1,7.848458290E0,8.372275502E0
3.598713766E0,-2.612962246E0,6.699903309E-2,1.063370419E1,1.095023859E1
3.601089391E0,2.215753794E0,-1.612762451E0,1.065284634E1,1.099971375E1
3.603465016E0,-1.560120344E0,-5.264209956E-2,8.188239098E0,8.335706701E0
3.605840641E0,7.082754970E-1,-1.512263894E0,1.330887985E1,1.341323522E1
3.608216266E0,3.589234054E-1,-4.019941986E-1,6.183053493E0,6.206494651E0
3.610591891E0,-1.406979680E0,-1.033699393E0,1.302174091E1,1.313825950E1
3.612967568E0,2.340180635E0,-7.992027402E-1,6.814758778E0,7.249559133E0
3.615343193E0,-1.986042738E0,-3.158525825E-1,1.191147137E1,1.208003637E1
3.617718818E0,2.636890650E0,-1.459621787E0,9.006584167E0,9.497486321E0
3.620094443E0,-2.426322222E0,3.493520916E-1,9.221938133E0,9.542181582E0
3.622470068E0,1.459621787E0,-1.899901152E0,1.238525009E1,1.261485394E1
3.624845693E0,-2.679961324E-1,-1.722832322E-1,7.058826923E0,7.066013089E0
3.627221318E0,-5.072783828E-1,-1.268195987E0,1.341416359E1,1.348352466E1
3.629596943E0,1.488335729E0,-5.599204898E-1,6.398407936E0,6.593047726E0
3.631972568E0,-1.909472466E0,-7.465606928E-1,1.239482117E1,1.256324121E1
3.634348193E0,2.823530674E0,-1.067198873E0,8.059026718E0,8.605762636E0
3.636723870E0,-2.263610125E0,1.196411327E-1,1.029392338E1,1.054054568E1
3.639099495E0,2.225325108E0,-1.708475351E0,1.094955635E1,1.130326254E1
3.641475120E0,-1.435693622E0,1.148554832E-1,7.834101200E0,7.965397013E0
3.643850745E0,3.637090325E-1,-1.555334687E0,1.335673618E1,1.345190513E1
3.646226370E0,8.422735929E-1,-3.684946895E-1,6.623332977E0,6.686834294E0
3.648601995E0,-1.502692580E0,-1.081555843E0,1.292124271E1,1.305321268E1
3.650977620E0,2.349751949E0,-7.800601721E-1,7.245467186E0,7.656802390E0
3.653353245E0,-1.986042738E0,-2.632105052E-1,1.126062298E1,1.143745056E1
3.655728870E0,2.794816732E0,-1.512263894E0,9.523433685E0,1.003960815E1
3.658104495E0,-2.100898266E0,3.254238665E-1,8.647661209E0,8.905151240E0
3.660480172E0,1.134197950E0,-1.694118381E0,1.259581852E1,1.275974476E1
3.662855797E0,-1.100698411E-1,-1.531406492E-1,6.829115868E0,6.831719473E0
3.665231422E0,-6.508477330E-1,-1.215553880E0,1.350987625E1,1.358005634E1
3.667607047E0,1.698904037E0,-6.269195080E-1,6.867401123E0,7.102147646E0
3.669982672E0,-2.038684845E0,-4.833501875E-1,1.215553856E1,1.233478743E1
3.672358297E0,2.641676188E0,-1.134197950E0,8.269595146E0,8.755059220E0
3.674733922E0,-2.038684845E0,1.387837082E-1,9.772287369E0,9.983641482E0
3.677109547E0,2.129612207E0,-1.828116536E0,1.121755219E1,1.156333582E1
3.679485172E0,-1.095912814E0,2.919243574E-1,7.398607731E0,7.485027794E0
3.681860849E0,-2.488535494E-1,-1.440479279E0,1.327538013E1,1.335562153E1
3.684236474E0,1.110269666E0,-3.684946895E-1,6.833901405E0,6.933303360E0
3.686612099E0,-1.550549030E0,-1.043270707E0,1.289252853E1,1.302727554E1
3.688987724E0,2.287538528E0,-7.704889178E-1,7.843672752E0,8.206685563E0
3.691363349E0,-2.263610125E0,-6.699903309E-2,1.070548820E1,1.094238993E1
3.693738922E0,2.550748825E0,-1.679761529E0,9.844072342E0,1.030697233E1
3.696114599E0,-1.631905079E0,3.062812984E-1,8.279166222E0,8.444022486E0
3.698490224E0,7.465606928E-1,-1.694118381E0,1.279202938E1,1.292530099E1
3.700865849E0,3.828516230E-2,-4.307080805E-2,6.518048763E0,6.518303501E0
3.703241474E0,-1.191625714E0,-1.349551916E0,1.340459251E1,1.352495333E1
3.705617151E0,2.009970903E0,-6.317051649E-1,7.460821152E0,7.752605156E0
3.707992776E0,-2.120040894E0,-6.029912829E-1,1.194497108E1,1.214662530E1
3.710368401E0,2.407179594E0,-1.244267821E0,8.781659126E0,9.190225950E0
3.712744026E0,-2.249253273E0,1.148554832E-1,9.154939651E0,9.427897543E0
3.715119651E0,1.971685886E0,-1.933400750E0,1.176790142E1,1.208755921E1
3.717495276E0,-6.747759581E-1,6.699903309E-2,6.857829571E0,6.891272588E0
3.719870901E0,-7.369893789E-1,-1.354337573E0,1.340459251E1,1.349297907E1
3.722246526E0,1.244267821E0,-4.737788737E-1,6.805187702E0,6.934208570E0
3.724622151E0,-1.741974831E0,-1.071984529E0,1.280160141E1,1.296397415E1
3.726997828E0,2.306680918E0,-9.236295223E-1,8.465806961E0,8.822910849E0
3.729373453E0,-2.426322222E0,-1.196411327E-1,1.030349445E1,1.058599790E1
3.731749078E0,2.268395901E0,-1.746760488E0,1.027478027E1,1.066620372E1
3.734124703E0,-1.306481123E0,9.571290761E-2,7.695317745E0,7.806021335E0
3.736500328E0,6.556333899E-1,-1.665404558E0,1.307438278E1,1.319632194E1
3.738875953E0,5.168496966E-1,-9.092725813E-2,6.173482418E0,6.195747456E0
3.741251578E0,-1.617548108E0,-1.239482164E0,1.329930782E1,1.345452959E1
3.743627203E0,2.306680918E0,-7.034898400E-1,7.752745152E0,8.119158343E0
3.746002828E0,-1.981257200E0,-4.929214716E-1,1.173918819E1,1.191540562E1
3.748378505E0,2.498106956E0,-1.354337573E0,9.466006279E0,9.883321481E0
3.750754130E0,-2.105684042E0,1.435693651E-1,8.652446747E0,8.906141261E0
3.753129755E0,1.670190215E0,-1.919043779E0,1.195454216E1,1.222224786E1
3.755505380E0,3.828516230E-2,4.785645381E-2,6.613761902E0,6.614045849E0
3.757881005E0,-6.939185858E-1,-1.421336651E0,1.329452229E1,1.338828009E1
3.760256630E0,1.727617979E0,-3.637090325E-1,6.680760860E0,6.910102301E0
3.762632255E0,-1.957328916E0,-9.427721500E-1,1.256231880E1,1.274879639E1
3.765007880E0,2.761317253E0,-9.523434043E-1,9.049654961E0,9.509368320E0
3.767383505E0,-2.239681959E0,-1.244267747E-1,9.939785004E0,1.018974893E1
3.769759130E0,2.167897224E0,-1.674975872E0,1.098784161E1,1.132422120E1
3.772134755E0,-1.000199914E0,3.349951655E-2,7.226324558E0,7.295292229E0
3.774510432E0,4.929214716E-1,-1.622333765E0,1.317488194E1,1.328354066E1
3.776886005E0,1.100698471E0,-2.823530734E-1,6.010770321E0,6.117239593E0
3.779261682E0,-1.875972986E0,-1.095912814E0,1.325623703E1,1.343309792E1
3.781637307E0,2.474178553E0,-7.609176040E-1,7.905886173E0,8.318869592E0
3.784012932E0,-2.158325911E0,-5.120640397E-1,1.140419292E1,1.161792566E1
3.786388557E0,2.555534601E0,-1.469193101E0,1.030827999E1,1.072147013E1
3.788764182E0,-2.043470621E0,9.571290575E-3,8.360522270E0,8.606636766E0
3.791139807E0,1.129412293E0,-1.785045743E0,1.248574829E1,1.266316986E1
3.793515432E0,1.627119333E-1,-2.201396823E-1,6.111268997E0,6.117396947E0
3.795891109E0,-9.140582681E-1,-1.320838094E0,1.360558987E1,1.370007998E1
3.798266734E0,2.000399828E0,-6.556333899E-1,6.565905571E0,6.895112079E0
3.800642359E0,-2.526820660E0,-5.790630579E-1,1.250489140E1,1.277076527E1
3.803017984E0,2.541177750E0,-1.210768223E0,9.202795982E0,9.623668632E0
3.805393609E0,-2.287538528E0,-1.052841991E-1,9.868000984E0,1.013022017E1
3.807769234E0,1.837687731E0,-1.818545222E0,1.170568848E1,1.198779987E1
3.810144859E0,-1.091127157E0,-4.307080805E-2,6.924828529E0,7.010396831E0
3.812520484E0,-2.057827413E-1,-1.493121386E0,1.321795273E1,1.330360975E1
3.814896109E0,1.416550994E0,-4.498506486E-1,6.087340832E0,6.266155179E0
3.817271682E0,-2.115255117E0,-1.043270707E0,1.307438278E1,1.328541317E1
3.819647411E0,2.402393818E0,-7.561319470E-1,8.073383331E0,8.457112391E0
3.822022984E0,-2.679961443E0,-2.679961324E-1,1.087777138E1,1.120624493E1
3.824398661E0,2.364108801E0,-1.631905079E0,1.096869946E1,1.133862833E1
3.826774286E0,-1.828116536E0,-1.531406492E-1,8.073383331E0,8.279189607E0
3.829149911E0,5.312066078E-1,-1.526620865E0,1.297867012E1,1.307893841E1
3.831525536E0,1.866401732E-1,-2.967100143E-1,5.900700569E0,5.911102993E0
3.833901161E0,-1.301695466E0,-1.287338614E0,1.330409431E1,1.342946676E1
3.836276786E0,2.340180635E0,-6.843472719E-1,6.920042992E0,7.337013807E0
3.838652411E0,-2.617748022E0,-3.493520916E-1,1.206939697E1,1.235495831E1
3.841028036E0,2.431107759E0,-1.368694544E0,9.293723106E0,9.703447783E0
3.843403713E0,-2.364108801E0,-4.785645381E-2,9.422935486E0,9.715092065E0
3.845779286E0,1.651047587E0,-1.765903115E0,1.248096275E1,1.271293842E1
3.848154963E0,-6.508477330E-1,-1.483550072E-1,6.757331371E0,6.790223799E0
3.850530588E0,-6.460621357E-1,-1.292124271E0,1.315095329E1,1.323006251E1
3.852906213E0,1.588834286E0,-6.747759581E-1,6.049055576E0,6.290531802E0
3.855281838E0,-1.804188251E0,-7.800601721E-1,1.297388458E1,1.312193851E1
3.857657463E0,2.617748022E0,-1.067198873E0,7.972885132E0,8.459220736E0
3.860033036E0,-2.727817774E0,1.627119333E-1,1.052363396E1,1.087264166E1
3.862408713E0,2.258824587E0,-1.880758643E0,1.116491032E1,1.154533516E1
3.864784391E0,-1.172483087E0,-1.244267747E-1,7.948956966E0,8.035926547E0
3.867160016E0,4.259224236E-1,-1.517049551E0,1.328016567E1,1.337331857E1
3.869535641E0,7.178468108E-1,-4.402793646E-1,6.096911907E0,6.154793641E0
3.871911266E0,-1.497906923E0,-1.129412293E0,1.297867012E1,1.311354930E1
3.874286891E0,2.694318295E0,-8.949156404E-1,7.216753006E0,7.755111155E0
3.876662516E0,-2.124826431E0,-3.254238665E-1,1.157647610E1,1.177436142E1
3.879038141E0,2.689532757E0,-1.517049551E0,9.690931320E0,1.017099679E1
3.881413766E0,-2.234896421E0,4.785645287E-3,8.853444099E0,9.131169549E0
3.883789391E0,1.411765337E0,-1.861616015E0,1.291645622E1,1.312606327E1
3.886165016E0,4.785645287E-3,-3.732803464E-1,6.675975323E0,6.686404686E0
3.888540693E0,-7.848458290E-1,-1.268195987E0,1.336630726E1,1.344925551E1
3.890916318E0,1.923829436E0,-7.561319470E-1,6.369693756E0,6.696704695E0
3.893291943E0,-1.842473388E0,-8.039883971E-1,1.226082325E1,1.242452785E1
3.895667568E0,2.861815929E0,-1.177268744E0,8.537590981E0,9.081101908E0
3.898043193E0,-2.478964329E0,6.221338734E-2,9.781859398E0,1.009127881E1
3.900418818E0,1.933400750E0,-1.847259045E0,1.159083271E1,1.189528509E1
3.902794443E0,-9.619147182E-1,-1.962114573E-1,7.523034573E0,7.586819363E0
3.905170068E0,1.004985496E-1,-1.488335729E0,1.362951756E1,1.371090777E1
3.907545693E0,9.332008362E-1,-6.317051649E-1,6.355337143E0,6.454473287E0
3.909921318E0,-1.794616938E0,-9.906286001E-1,1.290209961E1,1.306392626E1
3.912296995E0,2.522035122E0,-1.057627559E0,7.479963779E0,7.964238529E0
3.914672620E0,-2.139183521E0,-1.722832322E-1,1.097348499E1,1.118137561E1
3.917048245E0,2.474178553E0,-1.818545222E0,1.003071213E1,1.049017884E1
3.919423870E0,-1.990828395E0,1.866401732E-1,8.413164139E0,8.647517741E0
3.921799495E0,6.125625968E-1,-1.789831281E0,1.304566860E1,1.318211661E1
3.924175120E0,3.493520916E-1,-4.259224236E-1,6.848258495E0,6.870378535E0
3.926550693E0,-1.167697430E0,-1.268195987E0,1.332802200E1,1.343904792E1
3.928926370E0,1.933400750E0,-8.231309652E-1,7.159325123E0,7.461334952E0
3.931302047E0,-2.124826431E0,-4.642075896E-1,1.175354481E1,1.195308293E1
3.933677620E0,2.703889608E0,-1.497906923E0,8.915657043E0,9.436296132E0
3.936053297E0,-2.057827473E0,2.105683982E-1,9.308079720E0,9.535163398E0
3.938428922E0,1.603191137E0,-1.928615093E0,1.205982590E1,1.231783985E1
