"Time (s)","Acceleration x (m/s^2)","Acceleration y (m/s^2)","Acceleration z (m/s^2)","Absolute acceleration (m/s^2)"
1.001218800E-2,-2.057827473E0,-3.589234054E-1,8.188239098E0,8.450487527E0
1.238765700E-2,2.177468538E0,-2.349751949E0,1.250489140E1,1.290871846E1
1.476380300E-2,-5.599204898E-1,-4.211367965E-1,6.575476646E0,6.612696899E0
1.713937600E-2,2.679961324E-1,-1.914258122E0,1.391665649E1,1.405025032E1
1.951500100E-2,5.359922647E-1,-7.657032609E-1,6.259624004E0,6.329019029E0
2.189062600E-2,-1.249053478E0,-1.426122308E0,1.306959724E1,1.320637466E1
2.426625100E-2,2.033899307E0,-1.301695466E0,8.126026154E0,8.477231773E0
2.664187600E-2,-1.909472466E0,-9.379864931E-1,1.092562866E1,1.113082501E1
2.901750100E-2,2.258824587E0,-1.651047587E0,9.753145218E0,1.014653085E1
3.139312600E-2,-2.277967215E0,-3.014956415E-1,8.561519623E0,8.864516485E0
3.376875100E-2,2.177468538E0,-2.277967215E0,1.223210907E1,1.263150807E1
3.614432300E-2,-1.239482164E0,-1.483550072E-1,6.800402164E0,6.914028843E0
3.851994800E-2,2.297109663E-1,-1.794616938E0,1.383530045E1,1.395309842E1
4.089552100E-2,8.614161611E-2,-7.082754970E-1,6.202196121E0,6.243101095E0
4.327119800E-2,-1.009771109E0,-1.497906923E0,1.321795273E1,1.334082596E1
4.564682300E-2,1.718046665E0,-1.143769264E0,7.752745152E0,8.022776942E0
4.802244800E-2,-2.014756680E0,-9.714859724E-1,1.111226845E1,1.133514621E1
5.039807300E-2,2.230110645E0,-1.550549030E0,9.245866776E0,9.636578657E0
5.277369800E-2,-2.172683001E0,-3.924229145E-1,9.040083885E0,9.305786577E0
5.514921900E-2,2.378465652E0,-2.187039852E0,1.196411324E1,1.239274980E1
5.752489600E-2,-1.579262972E0,-1.244267747E-1,6.972685337E0,7.150377218E0
5.990052100E-2,5.216353536E-1,-1.856830359E0,1.373001671E1,1.386482172E1
6.227614600E-2,9.571290761E-2,-7.178468108E-1,6.139982700E0,6.182544182E0
6.465177100E-2,-3.972085714E-1,-1.430907965E0,1.347159195E1,1.355319379E1
6.702739600E-2,1.579262972E0,-1.201196909E0,7.010970116E0,7.286332926E0
6.940302100E-2,-1.775474429E0,-8.279166222E-1,1.150469112E1,1.167029020E1
7.177864600E-2,2.565105915E0,-1.598405480E0,8.953942299E0,9.450277833E0
7.415421900E-2,-1.861616015E0,-3.972085714E-1,9.643074989E0,9.829154800E0
7.652984400E-2,2.545963287E0,-2.129612207E0,1.148076344E1,1.195094583E1
7.890546900E-2,-1.708475351E0,-3.828516230E-2,7.355536938E0,7.551442076E0
8.128109400E-2,1.004985452E0,-1.952543259E0,1.343330669E1,1.361161819E1
8.365671900E-2,1.196411327E-1,-6.747759581E-1,6.379265308E0,6.415969332E0
8.603234400E-2,-1.052841991E-1,-1.411765337E0,1.336152172E1,1.343631009E1
8.840796900E-2,1.426122308E0,-1.153340459E0,6.666403770E0,6.914112979E0
9.078354200E-2,-1.564906001E0,-8.709874153E-1,1.183011532E1,1.196491447E1
9.315916700E-2,2.708675146E0,-1.622333765E0,8.676374435E0,9.233003912E0
9.553479200E-2,-1.880758643E0,-2.967100143E-1,1.013599682E1,1.031327889E1
9.791041700E-2,2.483749866E0,-2.091326952E0,1.102612686E1,1.149426533E1
1.002860420E-1,-1.928615093E0,9.571290575E-3,7.609176159E0,7.849790418E0
1.026616670E-1,1.349551916E0,-2.134397745E0,1.339502144E1,1.363097735E1
1.050372920E-1,-1.196411327E-1,-5.982056856E-1,6.240481377E0,6.270229011E0
1.074129170E-1,-2.727817893E-1,-1.445264935E0,1.338544941E1,1.346601116E1
1.097885420E-1,1.191625714E0,-1.062413216E0,6.331408501E0,6.529580943E0
1.121641150E-1,-1.440479279E0,-1.004985452E0,1.229432297E1,1.241915269E1
1.145397400E-1,2.641676188E0,-1.512263894E0,8.484949112E0,9.014419371E0
1.169153650E-1,-2.273181438E0,-3.876372576E-1,1.028435135E1,1.053971058E1
1.192909900E-1,2.354537487E0,-1.847259045E0,1.089212894E1,1.129578177E1
1.216666150E-1,-2.163111687E0,-2.392822653E-1,7.695317745E0,7.997138449E0
1.240422400E-1,1.617548108E0,-2.014756680E0,1.342373466E1,1.367012651E1
1.264178650E-1,-5.359922647E-1,-6.221339107E-1,5.967699528E0,6.023933596E0
1.287934380E-1,-2.057827413E-1,-1.368694544E0,1.337587833E1,1.344729685E1
1.311690630E-1,9.714859724E-1,-9.762716293E-1,6.101697922E0,6.255206537E0
1.335446880E-1,-1.306481123E0,-1.153340459E0,1.266760349E1,1.278691774E1
1.359203130E-1,2.522035122E0,-1.272981644E0,8.178668022E0,8.652846586E0
1.382959380E-1,-2.493321180E0,-4.163511395E-1,1.056670475E1,1.086486300E1
1.406715630E-1,2.392822742E0,-1.775474429E0,1.055234814E1,1.096494238E1
1.430471880E-1,-1.990828395E0,-3.206382394E-1,8.126026154E0,8.372485152E0
1.454228130E-1,1.890329838E0,-1.990828395E0,1.306481171E1,1.335013294E1
1.477983860E-1,-8.470591903E-1,-5.264210105E-1,5.938985825E0,6.022140896E0
1.501740110E-1,8.614161611E-2,-1.483550072E0,1.353859043E1,1.361990353E1
1.525496360E-1,1.105484009E0,-1.033699393E0,5.977271080E0,6.165906170E0
1.549252610E-1,-1.000199914E0,-1.182054400E0,1.323709488E1,1.332735282E1
1.573008860E-1,2.431107759E0,-1.301695466E0,7.781459332E0,8.255652933E0
1.596765110E-1,-2.378465652E0,-4.594219327E-1,1.095434189E1,1.121899165E1
1.620521360E-1,2.608176708E0,-1.880758643E0,1.047577763E1,1.095818213E1
1.644277610E-1,-1.789831281E0,-4.689932466E-1,8.327022552E0,8.530108749E0
1.668033340E-1,2.057827473E0,-2.033899307E0,1.263410378E1,1.296117196E1
1.691789590E-1,-1.062413216E0,-4.067798555E-1,6.092126369E0,6.197434582E0
1.715545840E-1,3.732803464E-1,-1.627119422E0,1.361516094E1,1.371712300E1
1.739302090E-1,1.071984529E0,-9.858429432E-1,5.886343479E0,6.063833498E0
1.763058340E-1,-1.115055323E0,-1.172483087E0,1.342852020E1,1.352565044E1
1.786814590E-1,2.129612207E0,-1.105484009E0,7.575676441E0,7.946585216E0
1.810570840E-1,-2.282752752E0,-7.226324677E-1,1.112183952E1,1.137666349E1
1.834327090E-1,2.617748022E0,-1.698904037E0,1.042792130E1,1.088487125E1
1.858082820E-1,-2.038684845E0,-3.924229145E-1,8.437092781E0,8.688772424E0
1.881839070E-1,1.947757602E0,-2.019542217E0,1.226560879E1,1.258242701E1
1.905595320E-1,-1.368694544E0,-3.110669553E-1,6.206982136E0,6.363702903E0
1.929351570E-1,5.312066078E-1,-1.823330879E0,1.373480225E1,1.386547903E1
1.953107820E-1,6.747759581E-1,-6.460621357E-1,6.015556335E0,6.087662680E0
1.976864070E-1,-1.454836130E0,-1.296909928E0,1.333759308E1,1.347924006E1
2.000620320E-1,1.655833244E0,-9.379864931E-1,7.532605648E0,7.769282479E0
2.024376050E-1,-2.158325911E0,-8.997012973E-1,1.139462185E1,1.163207807E1
2.048132300E-1,2.373680115E0,-1.507478237E0,1.008335495E1,1.046808937E1
2.071888550E-1,-2.455035925E0,-3.876372576E-1,8.580661774E0,8.933376770E0
2.095644800E-1,1.837687731E0,-1.919043779E0,1.179661560E1,1.209214476E1
2.119401050E-1,-1.555334687E0,-2.536391914E-1,6.685546398E0,6.868764770E0
2.143157300E-1,6.795616150E-1,-1.871187329E0,1.373480225E1,1.387832622E1
2.166913550E-1,1.292124242E-1,-5.694918036E-1,5.843272686E0,5.872380475E0
2.190669800E-1,-1.426122308E0,-1.249053478E0,1.355294704E1,1.368489434E1
2.214425530E-1,1.421336651E0,-9.858429432E-1,7.274180889E0,7.477017573E0
2.238181780E-1,-1.832902193E0,-1.091127157E0,1.171525955E1,1.190787115E1
2.261938030E-1,2.311466694E0,-1.445264935E0,9.518648148E0,9.901329788E0
2.285694280E-1,-2.493321180E0,-3.445664644E-1,8.920442581E0,9.268747078E0
2.309450530E-1,2.100898266E0,-2.033899307E0,1.153819084E1,1.190295626E1
2.333206780E-1,-1.416550994E0,-2.297109663E-1,6.967899323E0,7.114141186E0
2.356963030E-1,1.076770186E0,-1.899901152E0,1.374437332E1,1.391678326E1
2.380718760E-1,-8.135596663E-2,-5.024927258E-1,5.958128452E0,5.979833809E0
2.404475010E-1,-9.379864931E-1,-1.397408366E0,1.356251907E1,1.366654647E1
2.428231260E-1,1.588834286E0,-1.033699393E0,7.255038261E0,7.498567130E0
2.451987510E-1,-1.282552958E0,-1.086341500E0,1.195454216E1,1.207212319E1
2.475743760E-1,2.402393818E0,-1.478764415E0,8.901300430E0,9.337632976E0
2.499500010E-1,-2.163111687E0,-3.397808075E-1,9.365508080E0,9.618068660E0
2.523256260E-1,2.574677229E0,-2.110469580E0,1.114098263E1,1.162774865E1
2.547012510E-1,-1.287338614E0,-1.818545163E-1,7.518248558E0,7.629834412E0
2.570768230E-1,1.383051515E0,-2.038684845E0,1.338544941E1,1.361026536E1
2.594524480E-1,-2.105683982E-1,-3.684946895E-1,6.135197163E0,6.149859479E0
2.618280730E-1,-4.402793646E-1,-1.517049551E0,1.352423382E1,1.361617368E1
2.642036980E-1,1.555334687E0,-1.000199914E0,7.097112179E0,7.334062117E0
2.665793230E-1,-1.301695466E0,-1.134197950E0,1.191625690E1,1.204068082E1
2.689548960E-1,2.258824587E0,-1.316052437E0,8.542376518E0,8.933447213E0
2.713305730E-1,-2.072184324E0,-4.402793646E-1,9.777072906E0,1.000394664E1
2.737061460E-1,2.675175667E0,-2.081755638E0,1.085384369E1,1.137084844E1
2.760817710E-1,-1.694118381E0,1.914258115E-2,7.781459332E0,7.963762481E0
2.784573960E-1,1.301695466E0,-2.038684845E0,1.318923855E1,1.340920059E1
2.808330210E-1,-6.699903607E-1,-3.684946895E-1,6.173482418E0,6.220655961E0
2.832086460E-1,-1.722832322E-1,-1.636690736E0,1.360080433E1,1.370001155E1
2.855842710E-1,1.071984529E0,-9.188438654E-1,6.752545357E0,6.898571858E0
2.879598960E-1,-1.473978758E0,-1.038485050E0,1.213161087E1,1.226487044E1
2.903355210E-1,2.009970903E0,-1.330409408E0,8.006384850E0,8.361349806E0
2.927110940E-1,-2.086541414E0,-4.833501875E-1,1.033220863E1,1.055186323E1
2.950867190E-1,2.593819857E0,-1.947757602E0,1.056191921E1,1.104879172E1
2.974623440E-1,-2.416750908E0,9.571290575E-3,8.011170387E0,8.367773153E0
2.998379690E-1,1.311266780E0,-1.947757602E0,1.298345566E1,1.319406310E1
3.022135940E-1,-8.566305041E-1,-4.977070987E-1,6.384050846E0,6.460466963E0
3.045892190E-1,1.244267747E-1,-1.545763373E0,1.372044468E1,1.380780463E1
3.069648440E-1,6.460621357E-1,-9.236295223E-1,6.259624004E0,6.360297199E0
3.093404690E-1,-1.497906923E0,-1.019342422E0,1.229432297E1,1.242711396E1
3.117160420E-1,2.072184324E0,-1.253839016E0,7.791030407E0,8.158812104E0
3.140916670E-1,-1.875972986E0,-6.221339107E-1,1.086341476E1,1.104174377E1
3.164672920E-1,2.574677229E0,-1.847259045E0,1.009771156E1,1.058324655E1
3.188429170E-1,-2.421536446E0,1.435693540E-2,8.413164139E0,8.754734474E0
3.212185420E-1,1.698904037E0,-2.086541414E0,1.266281700E1,1.294553454E1
3.235941670E-1,-6.891329288E-1,-5.264210105E-1,6.618547440E0,6.675117488E0
3.259697920E-1,5.694918036E-1,-1.636690736E0,1.371087360E1,1.381995414E1
3.283453650E-1,5.982056856E-1,-1.043270707E0,5.924628735E0,6.045451964E0
3.307209900E-1,-9.858429432E-1,-1.162911773E0,1.278245831E1,1.287305288E1
3.330966150E-1,2.464607239E0,-1.464407444E0,7.566105366E0,8.091027649E0
3.354722400E-1,-1.646261930E0,-6.795616150E-1,1.153819084E1,1.167483748E1
3.378478650E-1,2.737389088E0,-1.923829436E0,9.667003632E0,1.022963235E1
3.402234900E-1,-2.311466694E0,-1.292124242E-1,8.858229637E0,9.155752641E0
3.425991150E-1,2.210968018E0,-2.287538528E0,1.256710434E1,1.296353824E1
3.449746880E-1,-7.657032609E-1,-5.599204898E-1,6.738188744E0,6.804630775E0
3.473503130E-1,6.747759581E-1,-1.765903115E0,1.358644676E1,1.371733473E1
3.497259380E-1,4.977070987E-1,-9.858429432E-1,5.761917114E0,5.866795334E0
3.521015630E-1,-8.087740541E-1,-1.421336651E0,1.314138222E1,1.324274292E1
3.544771880E-1,2.455035925E0,-1.320838094E0,7.451249599E0,7.955685719E0
3.568528130E-1,-1.952543259E0,-7.992027402E-1,1.162911797E1,1.181894813E1
3.592284380E-1,2.603390932E0,-1.665404558E0,9.700503349E0,1.018091263E1
3.616040110E-1,-2.292324066E0,-3.302095234E-1,8.930013657E0,9.225450225E0
3.639796360E-1,2.388036966E0,-2.201396942E0,1.251446247E1,1.292906184E1
3.663552610E-1,-1.153340459E0,-4.881358147E-1,6.585047722E0,6.703083193E0
3.687308860E-1,7.034898400E-1,-1.718046665E0,1.357209015E1,1.369847485E1
3.711065110E-1,2.919243574E-1,-8.566305041E-1,5.637490273E0,5.709670063E0
3.734820840E-1,-6.364908218E-1,-1.406979680E0,1.355294704E1,1.364064097E1
3.758577610E-1,2.120040894E0,-1.177268744E0,7.164111137E0,7.563400259E0
3.782333860E-1,-2.201396942E0,-7.944171429E-1,1.187797165E1,1.210633956E1
3.806089590E-1,2.483749866E0,-1.531406522E0,9.513862610E0,9.951271331E0
3.829845840E-1,-2.206182480E0,-4.546363056E-1,9.260223389E0,9.530250391E0
3.853602090E-1,2.397608280E0,-1.957328916E0,1.212682533E1,1.251557248E1
3.877358340E-1,-1.651047587E0,-3.876372576E-1,6.680760860E0,6.892661783E0
3.901114590E-1,8.135597110E-1,-1.718046665E0,1.343330669E1,1.356714017E1
3.924870840E-1,2.488535494E-1,-7.274180651E-1,5.804987907E0,5.855676710E0
3.948627090E-1,-5.982056856E-1,-1.387837172E0,1.373958778E1,1.382245327E1
3.972382820E-1,1.670190215E0,-1.048056364E0,6.814758778E0,7.094286060E0
3.996139070E-1,-2.153540373E0,-7.657032609E-1,1.211725426E1,1.233093218E1
4.019895320E-1,2.368894339E0,-1.483550072E0,9.370293617E0,9.778291450E0
4.043651570E-1,-2.053041935E0,-5.407779217E-1,9.446864128E0,9.682492644E0
4.067407820E-1,2.301895380E0,-1.909472466E0,1.161476135E1,1.199364368E1
4.091164070E-1,-1.923829436E0,-2.297109663E-1,6.809973240E0,7.080227564E0
4.114920320E-1,1.028913736E0,-1.861616015E0,1.339980698E1,1.356757549E1
4.138676570E-1,1.483550072E-1,-6.317051649E-1,5.804987907E0,5.841142459E0
4.162432300E-1,-6.029912829E-1,-1.435693622E0,1.376830196E1,1.385608002E1
4.186188550E-1,1.493121386E0,-9.188438654E-1,6.790830612E0,7.013491707E0
4.209944800E-1,-2.014756680E0,-1.081555843E0,1.203589821E1,1.225119803E1
4.233701050E-1,2.450250387E0,-1.411765337E0,9.346364975E0,9.764801410E0
4.257457300E-1,-1.899901152E0,-5.982056856E-1,9.595218658E0,9.799780382E0
4.281213550E-1,2.411965132E0,-1.981257200E0,1.116012478E1,1.158841408E1
4.304969800E-1,-1.799402595E0,-2.392822653E-1,7.144968510E0,7.371952299E0
4.328725530E-1,1.517049551E0,-2.167897224E0,1.329452229E1,1.355527722E1
4.352481780E-1,2.201396823E-1,-5.024927258E-1,6.111268997E0,6.135842988E0
4.376238030E-1,-4.402793646E-1,-1.622333765E0,1.379701519E1,1.389904460E1
4.399994280E-1,1.416550994E0,-9.236295223E-1,6.714260101E0,6.923943740E0
4.423750530E-1,-1.344766378E0,-1.325623751E0,1.234696484E1,1.249052503E1
4.447506780E-1,2.689532757E0,-1.450050473E0,9.126225471E0,9.624147972E0
4.471262510E-1,-1.909472466E0,-7.657032609E-1,9.762716293E0,9.977124636E0
4.495018760E-1,2.589034081E0,-1.990828395E0,1.085384369E1,1.133456739E1
4.518775010E-1,-1.531406522E0,-3.732803464E-1,7.585247993E0,7.747291867E0
4.542531260E-1,1.990828395E0,-2.316252232E0,1.325623703E1,1.360353786E1
4.566287510E-1,-1.148554832E-1,-4.833501875E-1,6.072983742E0,6.093270937E0
4.590043760E-1,-3.637090325E-1,-1.646261930E0,1.382572937E1,1.392814615E1
4.613800010E-1,1.272981644E0,-1.038485050E0,6.695117950E0,6.893731779E0
4.637556260E-1,-1.004985452E0,-1.378265858E0,1.257188988E1,1.268708113E1
4.661311980E-1,2.364108801E0,-1.378265858E0,8.532805443E0,8.960881425E0
4.685068230E-1,-2.091326952E0,-6.508477330E-1,1.003071213E1,1.026705591E1
4.708824480E-1,2.536391973E0,-1.957328916E0,1.043270683E1,1.091356003E1
4.732580730E-1,-1.785045743E0,-3.445664644E-1,8.020741463E0,8.224196494E0
4.756336980E-1,1.818545222E0,-2.139183521E0,1.305045509E1,1.334906705E1
4.780093230E-1,-7.848458290E-1,-3.254238665E-1,6.302694798E0,6.359704819E0
4.803849480E-1,-3.349951804E-1,-1.607976794E0,1.373958778E1,1.383741607E1
4.827605210E-1,8.901300430E-1,-9.092726111E-1,6.719046116E0,6.838471239E0
4.851361460E-1,-1.067198873E0,-1.244267821E0,1.265803146E1,1.276373285E1
4.875117710E-1,1.947757602E0,-1.268195987E0,8.102097511E0,8.428882774E0
4.898873960E-1,-2.277967215E0,-4.929214716E-1,1.033220863E1,1.059181955E1
4.922630210E-1,2.445464849E0,-1.842473388E0,1.017906761E1,1.062960131E1
4.946386460E-1,-1.909472466E0,-1.052841991E-1,8.499305725E0,8.711794744E0
4.970142710E-1,1.665404558E0,-2.134397745E0,1.260538960E1,1.289283029E1
4.993898440E-1,-1.172483087E0,-9.571290761E-2,6.489335060E0,6.595100232E0
5.017654690E-1,-7.657032460E-2,-1.660618901E0,1.372523022E1,1.382553661E1
5.041410940E-1,7.800601721E-1,-8.183453679E-1,6.551548481E0,6.648381044E0
5.065167190E-1,-1.119840980E0,-1.182054400E0,1.255753326E1,1.266265920E1
5.088923440E-1,1.856830359E0,-1.110269666E0,7.719245911E0,8.016687292E0
5.112679690E-1,-2.005185366E0,-6.029912829E-1,1.072463131E1,1.092712604E1
5.136435420E-1,2.679961443E0,-1.847259045E0,9.949356079E0,1.046824941E1
5.160191670E-1,-2.143969059E0,2.392822690E-2,8.695517540E0,8.955958976E0
5.183947920E-1,1.808973908E0,-2.100898266E0,1.244746304E1,1.275247020E1
5.207704170E-1,-1.205982566E0,-1.866401732E-1,6.628118515E0,6.739523986E0
5.231460420E-1,3.828516304E-1,-1.775474429E0,1.371565914E1,1.383539629E1
5.255216670E-1,6.412764788E-1,-8.231309652E-1,6.355337143E0,6.440426252E0
5.278972920E-1,-1.038485050E0,-1.244267821E0,1.262931824E1,1.273288391E1
5.302729170E-1,1.914258122E0,-1.229910851E0,7.374679565E0,7.717704552E0
5.326484900E-1,-1.756331801E0,-7.369893789E-1,1.122712421E1,1.138754464E1
5.350241150E-1,2.790031195E0,-1.770688772E0,9.729216576E0,1.027507995E1
5.373997400E-1,-2.383251429E0,-8.614161611E-2,8.848658562E0,9.164391201E0
5.397753650E-1,1.966900229E0,-2.048256159E0,1.226082325E1,1.258538186E1
5.421509900E-1,-1.196411371E0,-4.019941986E-1,6.742974281E0,6.860080296E0
5.445266150E-1,8.374879360E-1,-1.761117458E0,1.377787304E1,1.391519695E1
5.469022400E-1,3.349951804E-1,-8.662018180E-1,5.929414749E0,6.001706976E0
5.492777610E-1,-9.284151793E-1,-1.182054400E0,1.283510113E1,1.292281039E1
5.516534380E-1,2.009970903E0,-1.258624673E0,7.159325123E0,7.541886721E0
5.540290630E-1,-1.612762451E0,-8.662018180E-1,1.170568848E1,1.184797244E1
5.564046880E-1,2.727817774E0,-1.751546144E0,9.384650230E0,9.928774529E0
5.587803130E-1,-2.507678032E0,-3.828516230E-2,9.135796547E0,9.473789813E0
5.611559380E-1,2.076970100E0,-2.163111687E0,1.204546928E1,1.241314574E1
5.635315110E-1,-1.196411371E0,-4.642075896E-1,6.934400082E0,7.052148137E0
5.659071360E-1,9.475577474E-1,-1.794616938E0,1.368694592E1,1.383658210E1
5.682827610E-1,5.742774159E-2,-8.422735929E-1,5.675775528E0,5.738218416E0
5.706583860E-1,-8.901300430E-1,-1.306481123E0,1.309352589E1,1.318861799E1
5.730340110E-1,2.000399828E0,-1.287338614E0,7.006184578E0,7.399017673E0
5.754096360E-1,-1.823330879E0,-8.087740541E-1,1.200718403E1,1.217173444E1
5.777852610E-1,2.512463808E0,-1.612762451E0,9.231510162E0,9.702281020E0
5.801608860E-1,-2.622533560E0,-2.249253243E-1,9.265008926E0,9.631649084E0
5.825364590E-1,2.177468538E0,-2.148754835E0,1.202154064E1,1.240467476E1
5.849120840E-1,-1.435693622E0,-4.019941986E-1,7.063612461E0,7.219240716E0
5.872877090E-1,8.470591903E-1,-1.823330879E0,1.341894913E1,1.356872287E1
5.896633340E-1,-1.722832322E-1,-7.704889178E-1,5.699703693E0,5.754125205E0
5.920389590E-1,-7.992027402E-1,-1.402194023E0,1.340937805E1,1.350615759E1
5.944145840E-1,1.871187329E0,-1.210768223E0,6.977470875E0,7.324779964E0
5.967902090E-1,-2.167897224E0,-9.427721500E-1,1.212682533E1,1.235509977E1
5.991657820E-1,2.282752752E0,-1.469193101E0,9.193224907E0,9.585659742E0
6.015414070E-1,-2.622533560E0,-4.594219327E-1,9.427721024E0,9.796462345E0
6.039170320E-1,2.249253273E0,-2.067398787E0,1.197846985E1,1.236191805E1
6.062926570E-1,-1.756331801E0,-4.259224236E-1,6.943971157E0,7.175294192E0
6.086682820E-1,8.327022791E-1,-1.828116536E0,1.333280754E1,1.348329189E1
6.110439070E-1,-2.775674164E-1,-6.843472719E-1,5.680561066E0,5.728363543E0
6.134195320E-1,-5.838487148E-1,-1.536192179E0,1.368694592E1,1.378525496E1
6.157951050E-1,1.698904037E0,-1.014556766E0,6.757331371E0,7.041102728E0
6.181707300E-1,-2.177468538E0,-9.667003751E-1,1.228475189E1,1.251363288E1
6.205463550E-1,2.325823545E0,-1.406979680E0,9.035298347E0,9.435341182E0
6.229219800E-1,-2.220539331E0,-5.694918036E-1,9.729216576E0,9.995637599E0
6.252976050E-1,2.474178553E0,-1.904686809E0,1.161476135E1,1.202713900E1
6.276732300E-1,-1.909472466E0,-3.302095234E-1,6.982256413E0,7.246173337E0
6.300488030E-1,1.191625714E0,-1.861616015E0,1.322273827E1,1.340620727E1
6.324244280E-1,-5.264209956E-2,-6.699903607E-1,5.737988472E0,5.777211263E0
6.348000530E-1,-2.584248483E-1,-1.469193101E0,1.391665649E1,1.399637952E1
6.371756780E-1,1.507478237E0,-1.014556766E0,6.436692715E0,6.688260549E0
6.395513030E-1,-1.962114573E0,-8.805587292E-1,1.245703506E1,1.264132113E1
6.419269280E-1,2.474178553E0,-1.397408366E0,8.953942299E0,9.394008321E0
6.443025530E-1,-1.871187329E0,-6.412764788E-1,9.958928108E0,1.015346377E1
6.466781780E-1,2.545963287E0,-1.904686809E0,1.106441212E1,1.151220988E1
6.490537510E-1,-1.899901152E0,-2.201396823E-1,7.278966427E0,7.526050632E0
6.514293760E-1,1.612762451E0,-2.072184324E0,1.312702465E1,1.338707312E1
6.538050010E-1,7.178468257E-2,-6.364908218E-1,5.991627693E0,6.025767671E0
6.561806260E-1,-2.057827413E-1,-1.588834286E0,1.396451283E1,1.405611466E1
6.585562510E-1,1.454836130E0,-9.332008362E-1,6.556334019E0,6.780333895E0
6.609318760E-1,-1.584048629E0,-1.258624673E0,1.250967693E1,1.267222802E1
6.633074480E-1,2.560320139E0,-1.483550072E0,9.059226990E0,9.530254649E0
6.656830730E-1,-1.785045743E0,-7.800601721E-1,1.010249710E1,1.028860194E1
6.680586980E-1,2.512463808E0,-2.076970100E0,1.079162979E1,1.127322282E1
6.704343230E-1,-1.890329838E0,-3.349951804E-1,7.613961697E0,7.852259636E0
6.728099480E-1,1.775474429E0,-2.364108801E0,1.305045509E1,1.338116953E1
6.751855730E-1,-1.962114573E-1,-4.594219327E-1,6.312266350E0,6.332003942E0
6.775611980E-1,-4.115654826E-1,-1.756331801E0,1.378744411E1,1.390495245E1
6.799367710E-1,9.379864931E-1,-9.571290612E-1,6.599404812E0,6.734096715E0
6.823123960E-1,-1.536192179E0,-1.450050473E0,1.253360462E1,1.271038070E1
6.846880210E-1,2.220539331E0,-1.335195065E0,8.863015175E0,9.233990404E0
6.870636460E-1,-2.234896421E0,-7.992027402E-1,1.009292603E1,1.036825167E1
6.894392710E-1,2.163111687E0,-1.933400750E0,1.042792130E1,1.082398416E1
6.918148960E-1,-2.143969059E0,-3.254238665E-1,8.044670105E0,8.331819796E0
6.941905210E-1,1.765903115E0,-2.330609322E0,1.299781227E1,1.332266030E1
6.965660940E-1,-8.518448472E-1,-3.972085714E-1,6.355337143E0,6.424462973E0
6.989417190E-1,-5.072783828E-1,-1.679761529E0,1.385922909E1,1.396986618E1
7.013173440E-1,5.790630579E-1,-9.571290612E-1,6.594619274E0,6.688827508E0
7.036929690E-1,-1.244267821E0,-1.411765337E0,1.280638695E1,1.294391094E1
7.060685940E-1,1.952543259E0,-1.339980721E0,8.298309326E0,8.629595076E0
7.084441670E-1,-2.277967215E0,-7.226324677E-1,1.033699417E1,1.060965507E1
7.108198440E-1,2.268395901E0,-1.866401672E0,1.011206818E1,1.053009962E1
7.131954170E-1,-2.033899307E0,-3.589234054E-1,8.331808090E0,8.583973349E0
7.155710420E-1,1.909472466E0,-2.215753794E0,1.277767277E1,1.310818719E1
7.179466670E-1,-1.081555843E0,-2.344966233E-1,6.465406895E0,6.559438850E0
7.203222920E-1,-1.531406492E-1,-1.780260086E0,1.374437332E1,1.386003521E1
7.226979170E-1,7.274180651E-1,-9.092726111E-1,6.479763508E0,6.583558980E0
7.250735420E-1,-8.566305041E-1,-1.359123230E0,1.283510113E1,1.293525619E1
7.274491670E-1,1.947757602E0,-1.287338614E0,7.771887779E0,8.115000926E0
7.298247400E-1,-1.938186288E0,-6.556333899E-1,1.068156052E1,1.087576003E1
7.322003650E-1,2.641676188E0,-1.847259045E0,9.777072906E0,1.029475467E1
7.345759900E-1,-1.674975872E0,-1.962114573E-1,8.872586250E0,9.031435649E0
7.369516150E-1,2.167897224E0,-2.268395901E0,1.225603771E1,1.265131846E1
7.393272400E-1,-1.134197950E0,-1.052841991E-1,6.690331936E0,6.786606749E0
7.417028650E-1,5.168496966E-1,-1.837687731E0,1.379222965E1,1.392371461E1
7.440784380E-1,9.475577474E-1,-8.614161611E-1,6.364908218E0,6.492454090E0
7.464540630E-1,-5.694918036E-1,-1.349551916E0,1.284945774E1,1.293267859E1
7.488296880E-1,2.067398787E0,-1.177268744E0,7.331608772E0,7.707956060E0
7.512053130E-1,-1.540977836E0,-7.657032609E-1,1.103091240E1,1.116431559E1
7.535809380E-1,3.086741209E0,-1.837687731E0,9.609575272E0,1.025909374E1
7.559565630E-1,-1.808973908E0,-1.435693651E-1,9.001798630E0,9.182885022E0
7.583321360E-1,2.373680115E0,-2.172683001E0,1.211725426E1,1.253725486E1
7.607077610E-1,-1.033699393E0,-2.153540403E-1,6.786045074E0,6.867701184E0
7.630833860E-1,9.714859724E-1,-1.947757602E0,1.379701519E1,1.396764736E1
7.654590110E-1,7.704889178E-1,-8.374879360E-1,6.159125328E0,6.263374811E0
7.678346360E-1,-5.407779217E-1,-1.316052437E0,1.292602825E1,1.300410094E1
7.702102610E-1,2.086541414E0,-1.234696507E0,7.097112179E0,7.499808785E0
7.725858340E-1,-1.440479279E0,-9.379864931E-1,1.142333508E1,1.155194284E1
7.749614590E-1,3.110669374E0,-1.746760488E0,9.576076508E0,1.021903505E1
7.773370840E-1,-2.153540373E0,-2.536391914E-1,9.145368576E0,9.398927352E0
7.797127090E-1,2.263610125E0,-2.120040894E0,1.208375454E1,1.247540091E1
7.820883340E-1,-1.148554921E0,-4.450650215E-1,6.953542709E0,7.061799876E0
7.844639590E-1,1.129412293E0,-1.942971945E0,1.377787304E1,1.395996052E1
7.868395840E-1,2.536391914E-1,-8.805587292E-1,5.943771362E0,6.013994889E0
7.892151050E-1,-7.322037220E-1,-1.263410330E0,1.304566860E1,1.312713972E1
7.915907820E-1,1.866401672E0,-1.268195987E0,6.915257454E0,7.274102138E0
7.939664070E-1,-1.550549030E0,-9.571290612E-1,1.203111267E1,1.216831831E1
7.963420320E-1,2.679961443E0,-1.689332843E0,9.154939651E0,9.687567229E0
7.987176570E-1,-2.603390932E0,-1.387837082E-1,9.446864128E0,9.800007506E0
8.010932820E-1,2.096112728E0,-2.110469580E0,1.187318611E1,1.224011106E1
8.034689070E-1,-1.392622828E0,-4.498506486E-1,7.178467751E0,7.326128800E0
8.058445320E-1,1.014556766E0,-1.775474429E0,1.361037540E1,1.376313749E1
8.082201050E-1,-1.914258152E-1,-7.752745152E-1,5.670989513E0,5.726937792E0
8.105957300E-1,-8.039883971E-1,-1.234696507E0,1.320838070E1,1.329030449E1
8.129713550E-1,1.780260086E0,-1.225125194E0,6.766902447E0,7.103606580E0
8.153469280E-1,-1.823330879E0,-8.183453679E-1,1.221775246E1,1.238013327E1
8.177226050E-1,2.421536446E0,-1.473978758E0,8.973084450E0,9.410244241E0
8.200981780E-1,-2.684746981E0,-1.292124242E-1,9.456435204E0,9.831008542E0
8.224738030E-1,2.143969059E0,-2.024327993E0,1.172004509E1,1.208527882E1
8.248494280E-1,-1.488335729E0,-2.249253243E-1,7.178467751E0,7.334584780E0
8.272250530E-1,9.714859724E-1,-1.794616938E0,1.325623703E1,1.341239185E1
8.296006780E-1,-2.392822653E-1,-5.982056856E-1,5.623133183E0,5.659923395E0
8.319763030E-1,-6.556333899E-1,-1.292124271E0,1.338544941E1,1.346364350E1
8.343519280E-1,1.942971945E0,-9.954141974E-1,6.776473522E0,7.119451018E0
8.367275010E-1,-1.942971945E0,-8.709874153E-1,1.215553856E1,1.234061898E1
8.391030730E-1,2.435893536E0,-1.292124271E0,8.992227554E0,9.405494077E0
8.414787510E-1,-2.431107759E0,-4.163511395E-1,9.518648148E0,9.833020684E0
8.438543760E-1,2.545963287E0,-1.938186288E0,1.176311588E1,1.219054512E1
8.462300010E-1,-1.531406522E0,-3.589234054E-1,6.991827965E0,7.166567535E0
8.486056260E-1,1.138983607E0,-1.804188251E0,1.325145149E1,1.342212150E1
8.509812510E-1,0.000000000E0,-5.982056856E-1,5.675775528E0,5.707212795E0
8.533568230E-1,-2.679961324E-1,-1.540977836E0,1.362951756E1,1.371897166E1
8.557324480E-1,1.919043779E0,-9.858429432E-1,6.675975323E0,7.015929151E0
8.581080730E-1,-1.895115495E0,-9.619147182E-1,1.228953743E1,1.247194744E1
8.604836980E-1,2.545963287E0,-1.430907965E0,8.906085968E0,9.372715398E0
8.628593230E-1,-1.933400750E0,-5.934200287E-1,9.805787086E0,1.001217490E1
8.652348960E-1,2.689532757E0,-1.976471543E0,1.155733299E1,1.202962893E1
8.676105210E-1,-1.665404558E0,-3.254238665E-1,7.054041386E0,7.255272077E0
8.699861460E-1,1.387837172E0,-2.024327993E0,1.315573883E1,1.338272992E1
8.723617710E-1,1.148554832E-1,-6.987041831E-1,5.800201893E0,5.843262900E0
8.747373960E-1,-1.196411327E-1,-1.564906001E0,1.380658627E1,1.389550536E1
8.771130210E-1,1.631905079E0,-1.071984529E0,6.541976929E0,6.827131693E0
8.794886460E-1,-1.899901152E0,-9.858429432E-1,1.242832088E1,1.261129140E1
8.818642710E-1,2.531606436E0,-1.488335729E0,9.054440498E0,9.518774455E0
8.842398440E-1,-1.861616015E0,-6.987041831E-1,9.901499748E0,1.009918309E1
8.866154690E-1,2.483749866E0,-1.971685886E0,1.115055370E1,1.159273076E1
8.889910940E-1,-1.933400750E0,-2.536391914E-1,7.226324558E0,7.484793779E0
8.913667190E-1,1.397408366E0,-2.110469580E0,1.317488194E1,1.341582446E1
8.937423440E-1,-4.785645287E-3,-6.077769399E-1,6.029912949E0,6.060467464E0
8.961179690E-1,-4.354937077E-1,-1.612762451E0,1.387358570E1,1.397379826E1
8.984935420E-1,1.234696507E0,-9.140582681E-1,6.675975323E0,6.850447029E0
9.008691670E-1,-1.895115495E0,-1.182054400E0,1.234696484E1,1.254736052E1
9.032447920E-1,2.287538528E0,-1.402194023E0,9.116654396E0,9.503281958E0
9.056204170E-1,-2.134397745E0,-6.508477330E-1,9.911071777E0,1.015916337E1
9.079960420E-1,2.201396942E0,-1.928615093E0,1.089212894E1,1.127848295E1
9.103716670E-1,-2.143969059E0,-2.057827413E-1,7.503891945E0,7.806878005E0
9.127472920E-1,1.349551916E0,-2.215753794E0,1.316530991E1,1.341850365E1
9.151228650E-1,-3.445664644E-1,-3.637090325E-1,6.278766632E0,6.298723738E0
9.174984900E-1,-7.561319470E-1,-1.588834286E0,1.377308750E1,1.388503040E1
9.198741150E-1,8.901300430E-1,-8.470591903E-1,6.747759819E0,6.858724615E0
9.222497400E-1,-1.804188251E0,-1.253839016E0,1.244267750E1,1.263516644E1
9.246253650E-1,2.172683001E0,-1.282552958E0,9.044869423E0,9.390162746E0
9.270009900E-1,-2.407179594E0,-6.125625968E-1,9.858428955E0,1.016653176E1
9.293766150E-1,2.053041935E0,-1.861616015E0,1.064327526E1,1.099817729E1
9.317521880E-1,-2.096112728E0,-1.579262912E-1,7.728816986E0,8.009571854E0
9.341278130E-1,1.473978758E0,-2.210968018E0,1.316052437E1,1.342610869E1
9.365034380E-1,-6.987041831E-1,-3.062812984E-1,6.192625046E0,6.239439136E0
9.388790630E-1,-8.614161611E-1,-1.521835208E0,1.375394440E1,1.386466756E1
9.412546880E-1,7.704889178E-1,-8.997012973E-1,6.699903488E0,6.803809400E0
9.436302610E-1,-1.430907965E0,-1.320838094E0,1.252881908E1,1.267925150E1
9.460058860E-1,2.024327993E0,-1.263410330E0,8.599804878E0,8.924727079E0
9.483815110E-1,-2.440679073E0,-5.264210105E-1,9.968499184E0,1.027642980E1
9.507571360E-1,2.249253273E0,-1.919043779E0,1.044706345E1,1.085739398E1
9.531327610E-1,-1.895115495E0,-2.871387303E-1,8.035098076E0,8.260551584E0
9.555083860E-1,1.617548108E0,-2.124826431E0,1.302174091E1,1.329274560E1
9.578840110E-1,-7.896314859E-1,-3.493520916E-1,6.326622963E0,6.385273908E0
9.602595840E-1,-4.594219327E-1,-1.631905079E0,1.361516094E1,1.372030576E1
9.626352090E-1,1.086341500E0,-9.906286001E-1,6.824330330E0,6.980900181E0
9.650108340E-1,-1.134197950E0,-1.296909928E0,1.254796219E1,1.266569127E1
9.673864590E-1,2.129612207E0,-1.373480201E0,8.212167740E0,8.594265239E0
9.697620840E-1,-2.062613010E0,-5.551348329E-1,1.024606609E1,1.046634690E1
9.721377090E-1,2.627319336E0,-2.053041935E0,1.032263660E1,1.084779307E1
9.745133340E-1,-1.584048629E0,-2.009970993E-1,8.432307243E0,8.582156800E0
9.768889070E-1,1.751546144E0,-2.321038008E0,1.279681587E1,1.312301900E1
9.792645320E-1,-7.609176040E-1,-2.632105052E-1,6.508477688E0,6.558090971E0
9.816401570E-1,-4.307080805E-2,-1.746760488E0,1.367258835E1,1.378378393E1
9.840157820E-1,1.268195987E0,-1.071984529E0,6.848258495E0,7.046709609E0
9.863914070E-1,-1.110269666E0,-1.239482164E0,1.235653591E1,1.246807902E1
9.887670320E-1,2.120040894E0,-1.339980721E0,8.087740898E0,8.467684132E0
9.911426050E-1,-1.952543259E0,-6.029912829E-1,1.041356373E1,1.061217853E1
9.935182300E-1,2.770888567E0,-2.057827473E0,1.032742214E1,1.088889918E1
9.958938550E-1,-1.957328916E0,-1.004985496E-1,8.355736732E0,8.582515528E0
9.982694800E-1,1.612762451E0,-2.139183521E0,1.285902882E1,1.313513346E1
1.000645105E0,-8.901300430E-1,-3.254238665E-1,6.441478729E0,6.510827936E0
1.003020730E0,6.699903309E-2,-1.655833244E0,1.373001671E1,1.382966491E1
1.005396303E0,9.427721500E-1,-9.284151793E-1,6.570691109E0,6.702593208E0
1.007771928E0,-1.311266780E0,-1.115055323E0,1.239003563E1,1.250902681E1
1.010147553E0,2.038684845E0,-1.249053478E0,7.872386456E0,8.227444257E0
1.012523178E0,-1.923829436E0,-5.647061467E-1,1.068156052E1,1.086810691E1
1.014898803E0,2.675175667E0,-1.808973908E0,1.029870892E1,1.079316250E1
1.017274428E0,-2.273181438E0,1.914258115E-2,8.331808090E0,8.636361870E0
1.019650001E0,1.574477315E0,-1.933400750E0,1.268196011E1,1.292474872E1
1.022025626E0,-8.709874153E-1,-3.589234054E-1,6.599404812E0,6.666302495E0
1.024401251E0,3.397808075E-1,-1.502692580E0,1.368215942E1,1.376862457E1
1.026776876E0,6.699903607E-1,-8.805587292E-1,6.120840549E0,6.220044999E0
1.029152501E0,-1.349551916E0,-9.523434043E-1,1.256710434E1,1.267518678E1
1.031528126E0,2.234896421E0,-1.225125194E0,7.623532772E0,8.038280020E0
1.033903698E0,-1.818545222E0,-4.833501875E-1,1.104048347E1,1.119968792E1
1.036279323E0,2.713460922E0,-1.832902193E0,1.000199890E1,1.052437089E1
1.038654948E0,-2.225325108E0,8.135596663E-2,8.408378601E0,8.698248176E0
1.041030573E0,1.775474429E0,-2.086541414E0,1.268674564E1,1.297919410E1
1.043406198E0,-5.072783828E-1,-4.689932466E-1,6.594619274E0,6.630708061E0
1.045781823E0,5.647061467E-1,-1.598405480E0,1.358166122E1,1.368704916E1
1.048157448E0,8.709874153E-1,-9.714859724E-1,5.943771362E0,6.085295562E0
1.050533021E0,-1.019342422E0,-1.115055323E0,1.266281700E1,1.275262098E1
1.052908646E0,2.694318295E0,-1.459621787E0,7.700103283E0,8.287426464E0
1.055284271E0,-1.651047587E0,-4.977070987E-1,1.112183952E1,1.125473167E1
1.057659896E0,2.823530674E0,-1.957328916E0,1.001156998E1,1.058465849E1
1.060035521E0,-2.086541414E0,-1.052841991E-1,8.413164139E0,8.668683329E0
1.062411146E0,2.143969059E0,-2.215753794E0,1.283031464E1,1.319557281E1
1.064786719E0,-3.589234054E-1,-6.029912829E-1,6.503692150E0,6.541439909E0
1.067162344E0,4.881358147E-1,-1.660618901E0,1.340937805E1,1.352062689E1
1.069537917E0,1.000199914E0,-1.038485050E0,5.938985825E0,6.111497664E0
1.071913594E0,-9.762716293E-1,-1.311266780E0,1.276810169E1,1.287233264E1
1.074289219E0,2.785245657E0,-1.402194023E0,7.858029366E0,8.454133129E0
1.076664844E0,-2.014756680E0,-6.364908218E-1,1.105005455E1,1.125024758E1
1.079040417E0,2.646461725E0,-1.837687731E0,1.016949654E1,1.066768558E1
1.081416042E0,-2.134397745E0,-3.158525825E-1,8.417949677E0,8.690068662E0
1.083791667E0,2.019542217E0,-2.220539331E0,1.292124271E1,1.326528775E1
1.086167292E0,-7.944171429E-1,-5.742774606E-1,6.250052929E0,6.326456734E0
1.088542917E0,1.100698411E-1,-1.603191137E0,1.350030518E1,1.359560874E1
1.090918542E0,7.657032609E-1,-1.033699393E0,5.919843197E0,6.058001271E0
1.093294115E0,-1.239482164E0,-1.316052437E0,1.302652645E1,1.315137641E1
1.095669740E0,2.402393818E0,-1.268195987E0,7.905886173E0,8.359596480E0
1.098045365E0,-2.569891453E0,-5.647061467E-1,1.093998528E1,1.125195596E1
1.100420990E0,2.321038008E0,-1.799402595E0,1.041356373E1,1.081976787E1
1.102796615E0,-2.187039852E0,-4.354937077E-1,8.389236450E0,8.680557949E0
1.105172240E0,1.780260086E0,-2.048256159E0,1.293559933E1,1.321720126E1
1.107547813E0,-1.091127157E0,-5.647061467E-1,6.034698486E0,6.158493105E0
1.109923438E0,-1.196411327E-1,-1.560120344E0,1.356251907E1,1.365248011E1
1.112299063E0,9.523434043E-1,-1.033699393E0,6.020341873E0,6.182233307E0
1.114674688E0,-1.277767301E0,-1.201196909E0,1.326102352E1,1.337648340E1
1.117050313E0,2.263610125E0,-1.282552958E0,7.795815945E0,8.218492509E0
1.119425938E0,-2.569891453E0,-4.594219327E-1,1.089212894E1,1.120061978E1
1.121801563E0,2.488535643E0,-1.875972986E0,1.060499001E1,1.105341112E1
1.124177136E0,-1.914258122E0,-3.589234054E-1,8.260024071E0,8.486530965E0
1.126552761E0,1.780260086E0,-1.976471543E0,1.275853062E1,1.303287648E1
1.128928386E0,-8.949156404E-1,-4.211367965E-1,5.991627693E0,6.072712130E0
1.131304011E0,8.135596663E-2,-1.560120344E0,1.353859043E1,1.362842710E1
1.133679636E0,1.454836130E0,-9.188438654E-1,6.278766632E0,6.510278998E0
1.136055261E0,-1.397408366E0,-1.172483087E0,1.293081379E1,1.305884421E1
1.138430834E0,2.416750908E0,-1.153340459E0,8.193024635E0,8.619543598E0
1.140806459E0,-2.297109842E0,-6.173482537E-1,1.055713367E1,1.082177915E1
1.143182084E0,2.737389088E0,-1.866401672E0,1.083948612E1,1.133451426E1
1.145557709E0,-1.651047587E0,-3.589234054E-1,7.996813297E0,8.173359594E0
1.147933334E0,1.799402595E0,-2.014756680E0,1.263888931E1,1.292434204E1
1.150308959E0,-5.216353536E-1,-4.402793646E-1,5.943771362E0,5.982839407E0
1.152684532E0,2.249253243E-1,-1.732403636E0,1.371087360E1,1.382171729E1
1.155060157E0,1.588834286E0,-8.518448472E-1,6.374479294E0,6.624501513E0
1.157435782E0,-1.564906001E0,-1.196411371E0,1.284467220E1,1.299484263E1
1.159811407E0,2.392822742E0,-1.234696507E0,8.403593063E0,8.824423637E0
1.162187032E0,-1.966900229E0,-7.369893789E-1,1.047577763E1,1.068427661E1
1.164562657E0,2.785245657E0,-1.880758643E0,1.092562866E1,1.143084459E1
1.166938230E0,-1.995614052E0,-4.307080805E-1,7.690532207E0,7.956900812E0
1.169313855E0,1.617548108E0,-1.986042738E0,1.279202938E1,1.304595122E1
1.171689480E0,-3.876372576E-1,-6.795616150E-1,6.001199245E0,6.051979760E0
1.174065105E0,4.785645287E-3,-1.679761529E0,1.395494175E1,1.405567576E1
1.176440730E0,1.311266780E0,-1.043270707E0,6.360122681E0,6.577157049E0
1.178816355E0,-2.024327993E0,-1.158126116E0,1.267238903E1,1.288520872E1
1.181191876E0,2.258824587E0,-1.430907965E0,8.714659691E0,9.115650259E0
1.183567553E0,-2.105684042E0,-8.470591903E-1,1.024606609E1,1.049444067E1
1.185943178E0,2.340180635E0,-1.952543259E0,1.089212894E1,1.131049705E1
1.188318803E0,-2.258824587E0,-3.828516304E-1,7.546962738E0,7.887047005E0
1.190694428E0,1.210768223E0,-2.105684042E0,1.285902882E1,1.308642377E1
1.193070053E0,-3.637090325E-1,-6.364908218E-1,6.154339790E0,6.197846649E0
1.195445573E0,-5.264210105E-1,-1.603191137E0,1.383530045E1,1.393782190E1
1.197821251E0,1.048056364E0,-1.009771109E0,6.585047722E0,6.743953835E0
1.200196876E0,-2.163111687E0,-1.172483087E0,1.240439224E1,1.264605534E1
1.202572501E0,2.196611166E0,-1.440479279E0,8.982656479E0,9.358856692E0
1.204948126E0,-2.206182480E0,-6.317051649E-1,1.008335495E1,1.034119624E1
1.207323751E0,2.067398787E0,-2.053041935E0,1.075334454E1,1.114107435E1
1.209699323E0,-2.172683001E0,-2.009970993E-1,7.451249599E0,7.764153003E0
1.212074948E0,1.191625714E0,-2.182254314E0,1.306481171E1,1.329930489E1
1.214450573E0,-7.178468257E-2,-5.072783828E-1,6.173482418E0,6.194704962E0
1.216826198E0,-8.470591903E-1,-1.550549030E0,1.360558987E1,1.371983189E1
1.219201823E0,1.287338614E0,-8.422735929E-1,6.862615108E0,7.032933360E0
1.221577448E0,-1.861616015E0,-1.186840057E0,1.209811115E1,1.229790620E1
1.223953021E0,2.536391973E0,-1.392622828E0,9.327222824E0,9.765744631E0
1.226328646E0,-2.163111687E0,-5.599204898E-1,9.432506561E0,9.693541311E0
1.228704271E0,2.311466694E0,-1.899901152E0,1.102134132E1,1.142026564E1
1.231079896E0,-1.536192179E0,-2.057827413E-1,7.255038261E0,7.418747409E0
1.233455521E0,1.478764415E0,-2.053041935E0,1.330887985E1,1.354725095E1
1.235831094E0,3.397808075E-1,-4.546363056E-1,6.068198204E0,6.094684127E0
1.238206719E0,-7.513462901E-1,-1.406979680E0,1.354816151E1,1.364172985E1
1.240582344E0,1.765903115E0,-9.140582681E-1,7.106683254E0,7.379624869E0
1.242957969E0,-1.253839016E0,-1.143769264E0,1.193061352E1,1.205072028E1
1.245333594E0,2.799602509E0,-1.363908887E0,9.269794464E0,9.778911548E0
1.247709219E0,-2.048256159E0,-3.924229145E-1,9.116654396E0,9.352151432E0
1.250084844E0,2.550748825E0,-1.986042738E0,1.119362450E1,1.165109071E1
1.252460469E0,-1.019342422E0,-2.488535494E-1,7.154539585E0,7.231073485E0
1.254836042E0,1.306481123E0,-1.919043779E0,1.350509071E1,1.370317836E1
1.257211667E0,3.110669553E-1,-4.977070987E-1,6.101697922E0,6.129860727E0
1.259587292E0,-9.571290612E-1,-1.363908887E0,1.327538013E1,1.337953890E1
1.261962917E0,1.871187329E0,-1.024128079E0,7.556533813E0,7.851839505E0
1.264338542E0,-1.473978758E0,-1.014556766E0,1.165304661E1,1.178963248E1
1.266714115E0,2.455035925E0,-1.493121386E0,9.250652313E0,9.686649632E0
1.269089740E0,-2.325823545E0,-2.392822653E-1,8.977870941E0,9.277331394E0
1.271465365E0,2.210968018E0,-2.134397745E0,1.155733299E1,1.195892885E1
1.273840990E0,-1.119840980E0,-2.057827413E-1,7.125825882E0,7.216216797E0
1.276216615E0,5.407779217E-1,-1.904686809E0,1.353380489E1,1.367787072E1
1.278592240E0,5.742774159E-2,-4.594219327E-1,6.159125328E0,6.176503158E0
1.280967813E0,-1.363908887E0,-1.426122308E0,1.310309696E1,1.325085742E1
1.283343438E0,1.789831281E0,-1.062413216E0,7.834101200E0,8.105884250E0
1.285719063E0,-1.904686809E0,-8.853443861E-1,1.119841003E1,1.139368482E1
1.288094688E0,2.096112728E0,-1.540977836E0,9.370293617E0,9.724746975E0
1.290470313E0,-2.464607239E0,-1.770688742E-1,8.738588333E0,9.081220638E0
1.292845938E0,2.038684845E0,-2.244467735E0,1.183968639E1,1.222178568E1
1.295221563E0,-1.177268744E0,-5.742774159E-2,6.987041950E0,7.085761417E0
1.297597136E0,3.828516230E-2,-1.765903115E0,1.346201992E1,1.357740255E1
1.299972761E0,2.201396823E-1,-5.934200287E-1,6.364908218E0,6.396300918E0
1.302348386E0,-1.225125194E0,-1.397408366E0,1.289731407E1,1.303051772E1
1.304724011E0,1.957328916E0,-1.071984529E0,8.030312538E0,8.334638971E0
1.307099636E0,-2.091326952E0,-7.226324677E-1,1.076770210E1,1.099269097E1
1.309475209E0,2.321038008E0,-1.617548108E0,9.523433685E0,9.934760615E0
1.311850834E0,-2.005185366E0,-1.914258152E-1,8.642875671E0,8.874497849E0
1.314226459E0,2.215753794E0,-2.187039852E0,1.230389404E1,1.269167116E1
1.316602084E0,-9.762716293E-1,-1.196411327E-1,6.623332977E0,6.695965951E0
1.318977709E0,-7.178468257E-2,-1.574477315E0,1.359123230E1,1.368231440E1
1.321353334E0,8.183453679E-1,-7.561319470E-1,6.522834301E0,6.617310026E0
1.323728959E0,-7.896314859E-1,-1.349551916E0,1.273460197E1,1.283023366E1
1.326104532E0,2.215753794E0,-1.134197950E0,7.972885132E0,8.352416847E0
1.328480157E0,-1.909472466E0,-5.216353536E-1,1.054756260E1,1.073169443E1
1.330855782E0,2.751745939E0,-1.765903115E0,9.839286804E0,1.036832119E1
1.333231407E0,-1.593619823E0,-1.531406492E-1,8.513663292E0,8.662882826E0
1.335607032E0,2.201396942E0,-2.124826431E0,1.258624744E1,1.295278582E1
1.337982657E0,-5.599204898E-1,-2.057827413E-1,6.561119556E0,6.588182399E0
1.340358230E0,4.307080805E-2,-1.631905079E0,1.347159195E1,1.357014219E1
1.342733855E0,1.378265858E0,-9.188438654E-1,6.829115868E0,7.027141265E0
1.345109480E0,-7.178468108E-1,-1.225125194E0,1.250489140E1,1.258525107E1
1.347485105E0,2.383251429E0,-1.292124271E0,8.039883614E0,8.484645015E0
1.349860730E0,-1.837687731E0,-5.072783828E-1,1.031306553E1,1.048779043E1
1.352236303E0,2.924029350E0,-1.919043779E0,1.025085258E1,1.083109668E1
1.354611928E0,-1.493121386E0,-9.092725813E-2,8.417949677E0,8.549827834E0
1.356987553E0,1.737189293E0,-2.096112728E0,1.273938751E1,1.302702995E1
1.359363178E0,-4.929214716E-1,-1.866401732E-1,6.537191391E0,6.558405097E0
1.361738803E0,-9.571290761E-2,-1.641476393E0,1.348594856E1,1.358581666E1
1.364114376E0,1.478764415E0,-9.092726111E-1,6.996613503E0,7.208753108E0
1.366489948E0,-1.344766378E0,-1.162911773E0,1.220339584E1,1.233221920E1
1.368865626E0,2.258824587E0,-1.325623751E0,8.312665939E0,8.715502387E0
1.371241251E0,-2.067398787E0,-4.785645306E-1,1.011206818E1,1.033233200E1
1.373616876E0,2.656033039E0,-2.139183521E0,1.079162979E1,1.131768047E1
1.375992501E0,-1.919043779E0,-5.742774159E-2,7.925028801E0,8.154269340E0
1.378368126E0,1.004985452E0,-1.995614052E0,1.309831142E1,1.328752172E1
1.380743698E0,-5.886343718E-1,-5.407779217E-1,6.441478729E0,6.490884331E0
1.383119323E0,-4.977070987E-1,-1.603191137E0,1.347637749E1,1.358052592E1
1.385494948E0,1.167697430E0,-1.062413216E0,7.068397999E0,7.242547162E0
1.387870573E0,-1.928615093E0,-1.028913736E0,1.185404301E1,1.205390208E1
1.390246198E0,2.057827473E0,-1.454836130E0,8.556734085E0,8.920140149E0
1.392621771E0,-2.330609322E0,-4.594219327E-1,9.992427826E0,1.027090172E1
1.394997396E0,2.287538528E0,-2.115255117E0,1.109791183E1,1.152695900E1
1.397373021E0,-2.177468538E0,-8.614161611E-2,7.666603565E0,7.970294840E0
1.399748646E0,5.455635786E-1,-2.014756680E0,1.324666595E1,1.341010973E1
1.402124271E0,-3.684946895E-1,-7.130611539E-1,6.565905571E0,6.614783482E0
1.404499896E0,-6.747759581E-1,-1.493121386E0,1.329930782E1,1.339986278E1
1.406875521E0,1.148554921E0,-1.162911773E0,6.958328247E0,7.147718111E0
1.409251094E0,-2.038684845E0,-9.140582681E-1,1.165304661E1,1.186529535E1
1.411626719E0,2.273181438E0,-1.607976794E0,8.800801277E0,9.230766292E0
1.414002344E0,-2.191825628E0,-3.110669553E-1,9.829715729E0,1.007592048E1
1.416377969E0,2.148754835E0,-2.239681959E0,1.128933716E1,1.170822173E1
1.418753594E0,-1.919043779E0,-4.785645381E-2,7.417750359E0,7.662117178E0
1.421129167E0,5.551348329E-1,-1.981257200E0,1.340459251E1,1.356158749E1
1.423504792E0,1.962114573E-1,-8.662018180E-1,6.474977970E0,6.535605882E0
1.425880417E0,-6.987041831E-1,-1.383051515E0,1.296909904E1,1.306133795E1
1.428256042E0,1.655833244E0,-1.220339537E0,7.144968510E0,7.435158863E0
1.430631667E0,-1.813759565E0,-8.614161611E-1,1.145683479E1,1.163145842E1
1.433007292E0,2.790031195E0,-1.785045743E0,9.245866776E0,9.821237947E0
1.435382865E0,-2.043470621E0,-2.297109663E-1,9.523433685E0,9.742911704E0
1.437758490E0,2.239681959E0,-2.263610125E0,1.177268696E1,1.219574780E1
1.440134115E0,-1.339980721E0,-2.775674164E-1,7.202396393E0,7.331241764E0
1.442509740E0,7.322037220E-1,-1.990828395E0,1.354816151E1,1.371321261E1
1.444885365E0,6.747759581E-1,-9.379864931E-1,6.465406895E0,6.567848017E0
1.447260938E0,-8.470591903E-1,-1.383051515E0,1.273460197E1,1.283746191E1
1.449636563E0,2.053041935E0,-1.378265858E0,7.365108013E0,7.769132127E0
1.452012188E0,-1.684547186E0,-8.901300430E-1,1.132283688E1,1.148201488E1
1.454387813E0,2.928814888E0,-1.890329838E0,9.772287369E0,1.037539898E1
1.456763438E0,-2.234896421E0,-2.009970993E-1,8.968298912E0,9.244757824E0
1.459139063E0,1.995614052E0,-2.191825628E0,1.231825066E1,1.266988059E1
1.461514688E0,-1.009771109E0,-4.977070987E-1,6.934400082E0,7.025187153E0
1.463890261E0,6.317051649E-1,-1.804188251E0,1.365344620E1,1.378661451E1
1.466265886E0,6.795616150E-1,-1.038485050E0,6.302694798E0,6.423722978E0
1.468641511E0,-1.196411371E0,-1.186840057E0,1.261496067E1,1.272702723E1
1.471017136E0,2.215753794E0,-1.363908887E0,7.661818027E0,8.091555340E0
1.473392761E0,-1.746760488E0,-7.800601721E-1,1.127976608E1,1.144083865E1
1.475768334E0,2.732603550E0,-1.875972986E0,9.954142570E0,1.049148946E1
1.478143959E0,-2.445464849E0,-4.785645381E-2,8.705088615E0,9.042187588E0
1.480519584E0,1.617548108E0,-2.081755638E0,1.254796219E1,1.282191575E1
1.482895209E0,-7.704889178E-1,-5.312066078E-1,6.786045074E0,6.850273088E0
1.485270782E0,2.584248483E-1,-1.564906001E0,1.352901936E1,1.362167680E1
1.487646459E0,6.364908218E-1,-9.475577474E-1,6.116054535E0,6.221664514E0
1.490022032E0,-1.531406522E0,-1.043270707E0,1.254317665E1,1.267930993E1
1.492397657E0,2.321038008E0,-1.316052437E0,7.862815380E0,8.303196803E0
1.494773282E0,-2.029113531E0,-4.019941986E-1,1.110269737E1,1.129375004E1
1.497148907E0,2.373680115E0,-1.880758643E0,1.009771156E1,1.054207708E1
1.499524532E0,-2.478964329E0,6.699903309E-2,8.379665375E0,8.738909818E0
1.501900157E0,1.521835208E0,-2.105684042E0,1.283510113E1,1.309540792E1
1.504275730E0,-4.881358147E-1,-4.785645306E-1,6.604190350E0,6.639475187E0
1.506651355E0,-1.100698411E-1,-1.435693622E0,1.320359516E1,1.328187700E1
1.509026980E0,9.379864931E-1,-8.709874153E-1,6.259624004E0,6.389157254E0
1.511402605E0,-1.445264935E0,-1.019342422E0,1.241396427E1,1.253931253E1
1.513778230E0,2.708675146E0,-1.330409408E0,8.260024071E0,8.794026830E0
1.516153855E0,-2.258824587E0,-3.397808075E-1,1.045184898E1,1.069854601E1
1.518529376E0,2.435893536E0,-1.823330879E0,1.069113159E1,1.111568295E1
1.520905053E0,-1.962114573E0,-2.297109663E-1,7.968099594E0,8.209340526E0
1.523280678E0,1.622333765E0,-2.076970100E0,1.328973675E1,1.354853772E1
1.525656303E0,-2.105683982E-1,-6.412764788E-1,6.144768715E0,6.181727682E0
1.528031928E0,-2.775674164E-1,-1.450050473E0,1.322273827E1,1.330490501E1
1.530407501E0,1.574477315E0,-1.105484009E0,6.403193474E0,6.685952466E0
1.532783126E0,-1.282552958E0,-1.148554921E0,1.238525009E1,1.250434086E1
1.535158751E0,2.952743053E0,-1.464407444E0,8.671588898E0,9.276833227E0
1.537534376E0,-2.311466694E0,-3.780659735E-1,1.007378292E1,1.034248106E1
1.539910001E0,2.512463808E0,-2.053041935E0,1.120319557E1,1.166357778E1
1.542285626E0,-1.435693622E0,-4.785645306E-1,7.647460938E0,7.795761603E0
1.544661198E0,1.517049551E0,-1.971685886E0,1.338544941E1,1.361467005E1
1.547036823E0,-7.178468257E-2,-8.662018180E-1,5.895915031E0,5.959636959E0
1.549412396E0,-4.307080805E-1,-1.392622828E0,1.315573883E1,1.323625219E1
1.551788073E0,1.962114573E0,-1.263410330E0,6.733402729E0,7.126346299E0
1.554163698E0,-1.450050473E0,-1.033699393E0,1.232303619E1,1.245104019E1
1.556539271E0,2.718246460E0,-1.670190215E0,8.839086533E0,9.397225649E0
1.558914896E0,-2.541177750E0,-2.153540403E-1,9.777072906E0,1.010421280E1
1.561290521E0,2.258824587E0,-2.210968018E0,1.172004509E1,1.213878598E1
1.563666146E0,-1.249053478E0,-5.647061467E-1,7.379465103E0,7.505700023E0
1.566041771E0,9.379864931E-1,-1.947757602E0,1.339023590E1,1.356362768E1
1.568417396E0,-3.349951655E-2,-7.944171429E-1,5.800201893E0,5.854448122E0
1.570792969E0,-8.853443861E-1,-1.387837172E0,1.318445301E1,1.328682535E1
1.573168594E0,2.086541414E0,-1.306481123E0,7.149754047E0,7.561714815E0
1.575544219E0,-1.995614052E0,-8.183453679E-1,1.201675510E1,1.220879060E1
1.577919844E0,2.450250387E0,-1.670190215E0,9.384650230E0,9.841997880E0
1.580295469E0,-2.727817774E0,-2.440679073E-1,9.269794464E0,9.665901322E0
1.582671094E0,2.048256159E0,-2.201396942E0,1.221775246E1,1.258232796E1
1.585046667E0,-1.263410330E0,-4.594219327E-1,6.929614544E0,7.058812358E0
1.587422292E0,3.541377485E-1,-1.708475351E0,1.331845093E1,1.343225360E1
1.589797917E0,1.722832322E-1,-8.327022791E-1,5.828916073E0,5.890614330E0
1.592173542E0,-1.143769264E0,-1.359123230E0,1.309831142E1,1.321821419E1
1.594549167E0,2.239681959E0,-1.172483087E0,7.590033531E0,7.999968804E0
1.596924740E0,-2.478964329E0,-6.604190469E-1,1.144247818E1,1.172653932E1
1.599300365E0,2.354537487E0,-1.598405480E0,9.796216011E0,1.020120557E1
1.601675990E0,-2.316252232E0,-2.823530734E-1,8.839086533E0,9.141892495E0
1.604051615E0,2.053041935E0,-2.100898266E0,1.251924801E1,1.285925058E1
1.606427240E0,-1.105484009E0,-3.493520916E-1,6.412764549E0,6.516723942E0
1.608802865E0,2.297109663E-1,-1.521835208E0,1.332802200E1,1.341659122E1
1.611178438E0,8.805587292E-1,-8.805587292E-1,5.943771362E0,6.072823508E0
1.613554063E0,-9.379864931E-1,-1.177268744E0,1.308395386E1,1.317025546E1
1.615929688E0,2.474178553E0,-1.182054400E0,7.690532207E0,8.164747256E0
1.618305313E0,-2.306680918E0,-3.732803464E-1,1.102612686E1,1.127100655E1
1.620680938E0,2.656033039E0,-1.727617979E0,1.029392338E1,1.077051688E1
1.623056511E0,-1.818545222E0,-3.445664644E-1,8.417949677E0,8.619031821E0
1.625432136E0,2.129612207E0,-1.919043779E0,1.274417305E1,1.306261551E1
1.627807761E0,-5.934200287E-1,-5.216353536E-1,6.053841114E0,6.105181652E0
1.630183386E0,2.679961324E-1,-1.473978758E0,1.336630726E1,1.345000390E1
1.632559011E0,1.564906001E0,-1.048056364E0,6.168696880E0,6.449819698E0
1.634934636E0,-1.062413216E0,-1.091127157E0,1.304566860E1,1.313425862E1
1.637310209E0,2.670390129E0,-1.287338614E0,8.073383331E0,8.600450137E0
1.639685834E0,-2.287538528E0,-4.402793646E-1,1.058584690E1,1.083913433E1
1.642061459E0,2.770888567E0,-1.947757602E0,1.081077290E1,1.132891847E1
1.644437084E0,-1.555334687E0,-3.493520916E-1,8.015955925E0,8.172922504E0
1.646812709E0,1.741974831E0,-2.062613010E0,1.275853062E1,1.304104874E1
1.649188334E0,-4.259224236E-1,-5.312066078E-1,5.938985825E0,5.977887837E0
1.651563907E0,-1.100698411E-1,-1.627119422E0,1.345723438E1,1.355569217E1
1.653939532E0,1.741974831E0,-1.043270707E0,6.513263226E0,6.822425370E0
1.656315157E0,-1.770688772E0,-1.129412293E0,1.263410378E1,1.280747786E1
1.658690782E0,2.349751949E0,-1.268195987E0,8.614161491E0,9.018505058E0
1.661066407E0,-2.522035122E0,-5.742774606E-1,1.008335495E1,1.040982722E1
1.663442032E0,2.493321180E0,-1.986042738E0,1.142333508E1,1.185974707E1
1.665817605E0,-1.938186288E0,-4.307080805E-1,7.317251682E0,7.581836698E0
1.668193230E0,9.523434043E-1,-1.856830359E0,1.309831142E1,1.326350403E1
1.670568855E0,-4.642075896E-1,-6.460621357E-1,5.781059742E0,5.835540824E0
1.672944428E0,-6.173482537E-1,-1.598405480E0,1.363430309E1,1.374155158E1
1.675320105E0,1.493121386E0,-9.858429432E-1,6.752545357E0,6.985568450E0
1.677695678E0,-2.421536446E0,-9.619147182E-1,1.229910851E1,1.257207973E1
1.680071303E0,2.115255117E0,-1.330409408E0,9.025727272E0,9.365257401E0
1.682446928E0,-2.498106956E0,-5.694918036E-1,9.690931320E0,1.002392184E1
1.684822553E0,2.158325911E0,-1.919043779E0,1.162433243E1,1.197773786E1
1.687198178E0,-2.019542217E0,-3.302095234E-1,6.991827965E0,7.285138803E0
1.689573751E0,5.982056856E-1,-1.818545222E0,1.316530991E1,1.330377171E1
1.691949376E0,-4.307080805E-2,-7.274180651E-1,5.857629776E0,5.902780593E0
1.694325001E0,-8.183453679E-1,-1.373480201E0,1.371565914E1,1.380852790E1
1.696700626E0,1.550549030E0,-1.043270707E0,6.843472958E0,7.094063588E0
1.699076251E0,-2.502892494E0,-7.322037220E-1,1.199761295E1,1.227775670E1
1.701451876E0,2.421536446E0,-1.521835208E0,9.466006279E0,9.888634690E0
1.703827448E0,-2.158325911E0,-4.689932466E-1,9.298508644E0,9.557227025E0
1.706203073E0,2.139183521E0,-1.966900229E0,1.170090294E1,1.205636480E1
1.708578698E0,-1.497906923E0,-2.201396823E-1,6.723831654E0,6.892176633E0
1.710954323E0,7.609176040E-1,-1.842473388E0,1.333280754E1,1.348100370E1
1.713329948E0,7.704889178E-1,-7.322037220E-1,5.982056618E0,6.075753191E0
1.715705521E0,-9.379864931E-1,-1.292124271E0,1.351944828E1,1.361340830E1
1.718081146E0,2.177468538E0,-1.009771109E0,7.374679565E0,7.755443612E0
1.720456771E0,-2.009970903E0,-8.279166222E-1,1.142333508E1,1.162832805E1
1.722832396E0,2.890529871E0,-1.603191137E0,1.008335495E1,1.061128794E1
1.725208021E0,-1.785045743E0,-4.019941986E-1,8.724231720E0,8.914045476E0
1.727583646E0,2.311466694E0,-2.057827473E0,1.196889877E1,1.236252685E1
1.729959219E0,-7.944171429E-1,-3.349951804E-1,6.518048763E0,6.574821674E0
1.732334844E0,8.374879360E-1,-1.861616015E0,1.355294704E1,1.370581533E1
1.734710469E0,1.296909928E0,-7.322037220E-1,6.226124287E0,6.401774854E0
1.737086094E0,-1.196411371E0,-1.306481123E0,1.319402409E1,1.331242144E1
1.739461719E0,2.359323025E0,-1.086341500E0,7.891529083E0,8.307994599E0
1.741837292E0,-1.770688772E0,-8.901300430E-1,1.104526901E1,1.122165931E1
1.744212917E0,2.833101988E0,-1.708475351E0,1.040399265E1,1.091734482E1
1.746588542E0,-2.024327993E0,-4.307080805E-1,8.197810173E0,8.455028380E0
1.748964167E0,1.904686809E0,-2.086541414E0,1.237567902E1,1.269405050E1
1.751339792E0,-6.747759581E-1,-5.455635786E-1,6.317051888E0,6.376370971E0
1.753715417E0,2.871387303E-1,-1.775474429E0,1.387837124E1,1.399442555E1
1.756090990E0,1.062413216E0,-9.284151793E-1,6.197410583E0,6.355987298E0
1.758466615E0,-1.828116536E0,-1.215553880E0,1.295952702E1,1.314415923E1
1.760842240E0,2.072184324E0,-1.249053478E0,8.346165657E0,8.689796525E0
1.763217865E0,-2.081755638E0,-8.374879360E-1,1.069113159E1,1.092407375E1
1.765593490E0,2.383251429E0,-1.856830359E0,1.057149029E1,1.099473116E1
1.767969063E0,-2.373680115E0,-3.110669553E-1,7.901100159E0,8.255816353E0
1.770344688E0,1.392622828E0,-2.115255117E0,1.265803146E1,1.290889085E1
1.772720313E0,-5.455635786E-1,-5.599204898E-1,6.230910301E0,6.279760645E0
1.775095938E0,-3.732803464E-1,-1.612762451E0,1.386401463E1,1.396249414E1
1.777471563E0,9.619147182E-1,-9.188438654E-1,6.441478729E0,6.577400869E0
1.779847136E0,-2.072184324E0,-1.158126116E0,1.258624744E1,1.280815477E1
1.782222761E0,2.172683001E0,-1.330409408E0,8.810373306E0,9.171325881E0
1.784598386E0,-2.172683001E0,-6.412764788E-1,1.017428207E1,1.042342567E1
1.786974011E0,2.187039852E0,-1.919043779E0,1.065284634E1,1.104305245E1
1.789349636E0,-2.143969059E0,-2.201396823E-1,7.556533813E0,7.857879363E0
1.791725209E0,1.277767301E0,-2.124826431E0,1.294517040E1,1.318047850E1
1.794100834E0,-1.435693540E-2,-4.354937077E-1,6.240481377E0,6.255674920E0
1.796476459E0,-7.944171429E-1,-1.612762451E0,1.352423382E1,1.364320350E1
1.798852084E0,1.354337573E0,-8.039883971E-1,6.920042992E0,7.097015049E0
1.801227709E0,-1.818545222E0,-1.119840980E0,1.210289669E1,1.228988441E1
1.803603334E0,2.612962246E0,-1.373480201E0,9.245866776E0,9.705672156E0
1.805978907E0,-2.076970100E0,-4.881358147E-1,9.480362892E0,9.717477139E0
1.808354532E0,2.311466694E0,-1.923829436E0,1.099262714E1,1.139657183E1
1.810730157E0,-1.512263894E0,-1.196411327E-1,7.221538544E0,7.379151376E0
1.813105782E0,1.426122308E0,-2.134397745E0,1.329930782E1,1.354478007E1
1.815481407E0,4.211367965E-1,-4.642075896E-1,6.082555294E0,6.114762775E0
1.817857032E0,-8.949156404E-1,-1.392622828E0,1.342373466E1,1.352541773E1
1.820232605E0,1.804188251E0,-9.714859724E-1,7.221538544E0,7.506630348E0
1.822608178E0,-1.406979680E0,-1.095912814E0,1.183490086E1,1.196852100E1
1.824983855E0,2.790031195E0,-1.493121386E0,9.403793335E0,9.921946111E0
1.827359480E0,-2.120040894E0,-3.924229145E-1,9.025727272E0,9.279672512E0
1.829735105E0,2.421536446E0,-2.096112728E0,1.135633659E1,1.179931812E1
1.832110678E0,-9.379864931E-1,-3.206382394E-1,7.044469833E0,7.113872558E0
1.834486303E0,1.148554921E0,-1.971685886E0,1.358644676E1,1.377672890E1
1.836861928E0,4.354937077E-1,-6.747759581E-1,6.072983742E0,6.125855768E0
1.839237553E0,-1.048056364E0,-1.359123230E0,1.325145149E1,1.336213324E1
1.841613178E0,2.033899307E0,-1.167697430E0,7.709674358E0,8.058495045E0
1.843988751E0,-1.497906923E0,-1.004985452E0,1.149033451E1,1.163105791E1
1.846364376E0,2.589034081E0,-1.641476393E0,9.480362892E0,9.963675165E0
1.848740001E0,-2.177468538E0,-2.967100143E-1,8.738588333E0,9.010678783E0
1.851115626E0,2.187039852E0,-2.244467735E0,1.179661560E1,1.220577398E1
1.853491251E0,-7.896314859E-1,-3.254238665E-1,6.934400082E0,6.986796338E0
1.855866876E0,4.929214716E-1,-1.933400750E0,1.366301727E1,1.380793435E1
1.858242396E0,3.972085714E-1,-6.029912829E-1,6.278766632E0,6.320149014E0
1.860618073E0,-1.387837172E0,-1.406979680E0,1.301695538E1,1.316612362E1
1.862993698E0,2.053041935E0,-1.177268744E0,8.078168869E0,8.417704863E0
1.865369323E0,-1.890329838E0,-9.092726111E-1,1.087298584E1,1.107347934E1
1.867744948E0,2.282752752E0,-1.641476393E0,9.767501831E0,1.016412795E1
1.870120521E0,-2.330609322E0,-2.488535494E-1,8.465806961E0,8.784278878E0
1.872496146E0,1.976471543E0,-2.321038008E0,1.221296692E1,1.258770107E1
1.874871771E0,-8.566305041E-1,-1.962114573E-1,6.819544315E0,6.875936258E0
1.877247396E0,-1.962114573E-1,-1.789831281E0,1.351466274E1,1.363407877E1
1.879623021E0,5.359922647E-1,-7.274180651E-1,6.532405853E0,6.594600138E0
1.881998594E0,-1.272981644E0,-1.406979680E0,1.271545982E1,1.285624333E1
1.884374167E0,2.076970100E0,-1.158126116E0,8.384450912E0,8.715163682E0
1.886749844E0,-2.124826431E0,-6.891329288E-1,1.048056316E1,1.071596919E1
1.889125469E0,2.340180635E0,-1.751546144E0,9.901499748E0,1.032395547E1
1.891501094E0,-2.005185366E0,-1.914258152E-1,8.312665939E0,8.553234898E0
1.893876719E0,1.942971945E0,-2.191825628E0,1.265803146E1,1.299249784E1
1.896252292E0,-7.513462901E-1,-1.866401732E-1,6.484549522E0,6.530600149E0
1.898627917E0,-2.967100143E-1,-1.588834286E0,1.363908863E1,1.373452474E1
1.901003542E0,9.571290612E-1,-8.422735929E-1,6.637690067E0,6.759027317E0
1.903379167E0,-1.033699393E0,-1.292124271E0,1.265803146E1,1.276573069E1
1.905754792E0,2.287538528E0,-1.220339537E0,8.240880966E0,8.639107605E0
1.908130365E0,-2.100898266E0,-4.833501875E-1,1.020778179E1,1.043293871E1
1.910505990E0,2.584248543E0,-1.895115495E0,1.023649502E1,1.072639891E1
1.912881615E0,-1.593619823E0,-2.967100143E-1,8.216953278E0,8.375319823E0
1.915257240E0,1.871187329E0,-2.124826431E0,1.282074356E1,1.312964946E1
1.917632865E0,-5.024927258E-1,-2.823530734E-1,6.427121639E0,6.452915214E0
1.920008490E0,-3.110669553E-1,-1.631905079E0,1.347159195E1,1.357363866E1
1.922384063E0,1.339980721E0,-9.284151793E-1,6.900900364E0,7.090834148E0
1.924759688E0,-1.014556766E0,-1.186840057E0,1.238046455E1,1.247853426E1
1.927135313E0,2.282752752E0,-1.301695466E0,8.255238533E0,8.663390471E0
1.929510938E0,-2.048256159E0,-4.354937077E-1,1.007378292E1,1.028912583E1
1.931886563E0,2.699103832E0,-2.110469580E0,1.049491978E1,1.104004459E1
1.934262136E0,-1.507478237E0,-1.483550072E-1,8.145168304E0,8.284821456E0
1.936637761E0,1.445264935E0,-2.201396942E0,1.293559933E1,1.320093441E1
1.939013386E0,-4.642075896E-1,-3.110669553E-1,6.451049805E0,6.475206168E0
1.941389011E0,-3.062812984E-1,-1.670190215E0,1.346680546E1,1.357343703E1
1.943764636E0,1.454836130E0,-1.009771109E0,7.101897717E0,7.319367256E0
1.946140209E0,-1.411765337E0,-1.153340459E0,1.202632618E1,1.216370819E1
1.948515834E0,2.239681959E0,-1.406979680E0,8.441878319E0,8.846529073E0
1.950891459E0,-2.105684042E0,-4.402793646E-1,9.987641335E0,1.021668883E1
1.953267084E0,2.627319336E0,-2.210968018E0,1.087777138E1,1.140688812E1
1.955642709E0,-1.794616938E0,-8.614161611E-2,7.838887215E0,8.042152889E0
1.958018230E0,9.858429432E-1,-2.029113531E0,1.320838070E1,1.339964584E1
1.960393907E0,-5.120640397E-1,-5.742774606E-1,6.441478729E0,6.487268485E0
1.962769532E0,-4.354937077E-1,-1.612762451E0,1.342852020E1,1.353202913E1
1.965145157E0,1.368694544E0,-1.081555843E0,7.097112179E0,7.308357481E0
1.967520782E0,-1.794616938E0,-1.024128079E0,1.186361504E1,1.204221118E1
1.969896355E0,2.215753794E0,-1.488335729E0,8.599804878E0,9.004518425E0
1.972271980E0,-2.110469580E0,-4.450650215E-1,9.954142570E0,1.018514207E1
1.974647605E0,2.464607239E0,-2.139183521E0,1.117448139E1,1.164128126E1
1.977023230E0,-1.990828395E0,-8.135596663E-2,7.671389580E0,7.925921686E0
1.979398855E0,7.896314859E-1,-2.009970903E0,1.332323647E1,1.349711565E1
1.981774480E0,-1.770688742E-1,-7.417750359E-1,6.446264267E0,6.491217651E0
1.984150053E0,-3.589234054E-1,-1.488335729E0,1.343809223E1,1.352502466E1
1.986525678E0,1.344766378E0,-1.158126116E0,6.857829571E0,7.083747535E0
1.988901303E0,-1.794616938E0,-9.188438654E-1,1.174875927E1,1.192049782E1
1.991276928E0,2.555534601E0,-1.564906001E0,8.685946465E0,9.188327044E0
1.993652553E0,-1.938186288E0,-4.115654826E-1,9.978070259E0,1.017289724E1
1.996028126E0,2.421536446E0,-2.215753794E0,1.119362450E1,1.166493176E1
1.998403751E0,-1.775474429E0,-3.349951655E-2,7.503891945E0,7.711149459E0
2.000779376E0,9.284151793E-1,-2.062613010E0,1.348594856E1,1.367432396E1
2.003155001E0,2.823530734E-1,-7.513462901E-1,6.441478729E0,6.491293610E0
2.005530626E0,-3.924229145E-1,-1.454836130E0,1.316530991E1,1.325126141E1
2.007906198E0,1.598405480E0,-1.143769264E0,6.814758778E0,7.092534484E0
2.010281823E0,-1.593619823E0,-9.667003751E-1,1.172483063E1,1.187205909E1
2.012657448E0,2.866601467E0,-1.684547186E0,8.973084450E0,9.569291914E0
2.015033073E0,-1.933400750E0,-2.775674164E-1,9.777072906E0,9.970267637E0
2.017408698E0,2.402393818E0,-2.177468538E0,1.144247818E1,1.189298836E1
2.019784323E0,-1.545763373E0,-2.679961324E-1,7.384250641E0,7.549063774E0
2.022159896E0,1.086341500E0,-2.105684042E0,1.362951756E1,1.383393624E1
2.024535521E0,3.206382394E-1,-7.944171429E-1,6.331408501E0,6.389103308E0
2.026911146E0,-5.694918036E-1,-1.416550994E0,1.306481171E1,1.315371592E1
2.029286771E0,1.727617979E0,-1.258624673E0,6.843472958E0,7.169513378E0
2.031662396E0,-1.588834286E0,-9.954141974E-1,1.179661560E1,1.194468013E1
2.034037969E0,2.904886723E0,-1.727617979E0,9.284152031E0,9.880207978E0
2.036413594E0,-2.330609322E0,-2.919243574E-1,9.528220177E0,9.813457055E0
2.038789219E0,2.120040894E0,-2.139183521E0,1.174397373E1,1.212400918E1
2.041164844E0,-1.464407444E0,-4.307080805E-1,7.207181931E0,7.367053006E0
2.043540469E0,1.033699393E0,-1.990828395E0,1.373001671E1,1.391205560E1
2.045916042E0,1.483550072E-1,-9.379864931E-1,6.044270039E0,6.118417129E0
2.048291667E0,-8.949156404E-1,-1.316052437E0,1.308873940E1,1.318514190E1
2.050667292E0,1.804188251E0,-1.316052437E0,7.020541668E0,7.367163265E0
2.053042917E0,-1.679761529E0,-1.043270707E0,1.193061352E1,1.209336808E1
2.055418542E0,2.622533560E0,-1.674975872E0,9.332008362E0,9.837154391E0
2.057794115E0,-2.646461725E0,-1.866401732E-1,9.365508080E0,9.734029782E0
2.060169740E0,1.880758643E0,-2.201396942E0,1.193539906E1,1.228157776E1
2.062545365E0,-1.421336651E0,-4.785645306E-1,7.154539585E0,7.310038205E0
2.064920990E0,7.369893789E-1,-1.856830359E0,1.368694592E1,1.383197241E1
2.067296615E0,-7.657032460E-2,-8.997012973E-1,5.809773445E0,5.879523188E0
2.069672240E0,-1.162911773E0,-1.339980721E0,1.309831142E1,1.321793003E1
2.072047813E0,1.861616015E0,-1.311266780E0,7.164111137E0,7.517281633E0
2.074423438E0,-1.962114573E0,-8.374879360E-1,1.197846985E1,1.216696427E1
2.076799063E0,2.364108801E0,-1.679761529E0,9.327222824E0,9.767686258E0
2.079174688E0,-2.813959360E0,-1.292124242E-1,9.212367058E0,9.633419431E0
2.081550313E0,1.914258122E0,-2.206182480E0,1.220339584E1,1.254808732E1
2.083925886E0,-1.301695466E0,-4.163511395E-1,6.977470875E0,7.110053387E0
2.086301511E0,4.881358147E-1,-1.761117458E0,1.347637749E1,1.359972652E1
2.088677136E0,9.571290575E-3,-7.944171429E-1,5.718846321E0,5.773767700E0
2.091052761E0,-1.095912814E0,-1.316052437E0,1.315095329E1,1.326199802E1
2.093428334E0,2.158325911E0,-1.201196909E0,7.259823799E0,7.668525696E0
2.095803959E0,-2.115255117E0,-7.752745152E-1,1.173918819E1,1.195340513E1
2.098179584E0,2.383251429E0,-1.531406522E0,9.513862610E0,9.926664851E0
2.100555209E0,-2.517249346E0,-2.488535494E-1,9.087940216E0,9.433404991E0
2.102930834E0,2.234896421E0,-2.158325911E0,1.234217930E1,1.272723547E1
2.105306459E0,-1.153340459E0,-3.828516304E-1,6.671189308E0,6.780968690E0
2.107682032E0,5.790630579E-1,-1.703689694E0,1.337587833E1,1.349636965E1
2.110057657E0,4.115654826E-1,-8.087740541E-1,5.742774487E0,5.814031340E0
2.112433282E0,-7.417750359E-1,-1.378265858E0,1.326102352E1,1.335307425E1
2.114808907E0,2.416750908E0,-1.167697430E0,7.446464062E0,7.915429822E0
2.117184532E0,-2.100898266E0,-7.417750359E-1,1.160519028E1,1.181712508E1
2.119560105E0,2.593819857E0,-1.617548108E0,9.757930756E0,1.022553549E1
2.121935730E0,-1.938186288E0,-4.450650215E-1,9.068798065E0,9.284274194E0
2.124311355E0,2.478964329E0,-2.115255117E0,1.245224857E1,1.287159908E1
2.126686980E0,-1.110269666E0,-4.642075896E-1,6.513263226E0,6.623502492E0
2.129062605E0,7.082754970E-1,-1.770688772E0,1.353380489E1,1.366751140E1
2.131438178E0,8.422735929E-1,-9.954141974E-1,5.862415314E0,6.005679607E0
2.133813803E0,-6.077769399E-1,-1.445264935E0,1.358166122E1,1.367185815E1
2.136189428E0,2.234896421E0,-1.263410330E0,7.322037220E0,7.759071899E0
2.138565053E0,-2.167897224E0,-6.843472719E-1,1.149512005E1,1.171775979E1
2.140940678E0,2.679961443E0,-1.741974831E0,9.963713646E0,1.046385490E1
2.143316251E0,-1.837687731E0,-5.120640397E-1,8.829515457E0,9.033252403E0
2.145691876E0,2.244467735E0,-2.072184324E0,1.219861031E1,1.257528038E1
2.148067501E0,-1.229910851E0,-3.397808075E-1,6.393621922E0,6.519703442E0
2.150443126E0,5.886343718E-1,-1.808973908E0,1.345244884E1,1.358628930E1
2.152818751E0,8.997012973E-1,-8.662018180E-1,5.962913990E0,6.092299341E0
2.155194323E0,-9.523434043E-1,-1.292124271E0,1.346680546E1,1.356213082E1
2.157569948E0,2.043470621E0,-1.100698471E0,7.432106972E0,7.786110925E0
2.159945573E0,-2.201396942E0,-7.752745152E-1,1.134676456E1,1.158431116E1
2.162321198E0,2.608176708E0,-1.636690736E0,1.015035343E1,1.060712106E1
2.164696823E0,-1.995614052E0,-3.302095234E-1,8.671588898E0,8.904379135E0
2.167072396E0,2.029113531E0,-2.024327993E0,1.208854008E1,1.242368732E1
2.169448021E0,-1.316052437E0,-2.632105052E-1,6.326622963E0,6.467413076E0
2.171823646E0,5.647061467E-1,-1.852044702E0,1.359601784E1,1.373319568E1
2.174199271E0,8.327022791E-1,-6.460621357E-1,6.049055576E0,6.140184259E0
2.176574896E0,-1.378265858E0,-1.282552958E0,1.324666595E1,1.337978766E1
2.178950521E0,1.832902193E0,-9.332008362E-1,7.561319351E0,7.836066908E0
2.181326094E0,-2.005185366E0,-8.327022791E-1,1.123669529E1,1.144453942E1
2.183701719E0,2.603390932E0,-1.521835208E0,1.012164021E1,1.056130802E1
2.186077344E0,-2.277967215E0,-3.110669553E-1,8.331808090E0,8.643200989E0
2.188452969E0,1.976471543E0,-1.942971945E0,1.202632618E1,1.234155991E1
2.190828594E0,-1.076770186E0,-2.009970993E-1,6.384050846E0,6.477340432E0
2.193204167E0,7.657032609E-1,-1.842473388E0,1.374437332E1,1.388844151E1
2.195579792E0,7.369893789E-1,-5.982056856E-1,5.924628735E0,6.000185750E0
2.197955417E0,-1.311266780E0,-1.210768223E0,1.324188042E1,1.336161582E1
2.200331042E0,1.928615093E0,-1.071984529E0,7.695317745E0,8.005412057E0
2.202706615E0,-1.607976794E0,-9.810572863E-1,1.126540947E1,1.142179991E1
2.205082240E0,2.636890650E0,-1.521835208E0,9.906285286E0,1.036357385E1
2.207457865E0,-2.177468538E0,-2.727817893E-1,8.470592499E0,8.750240935E0
2.209833490E0,2.210968018E0,-2.086541414E0,1.192582798E1,1.230720958E1
2.212209115E0,-8.374879360E-1,-3.349951804E-1,6.613761902E0,6.674987214E0
2.214584740E0,8.135597110E-1,-1.832902193E0,1.385922909E1,1.400355815E1
2.216960313E0,5.024927258E-1,-7.226324677E-1,5.943771362E0,6.008586742E0
2.219335938E0,-1.234696507E0,-1.282552958E0,1.315573883E1,1.327564996E1
2.221711563E0,2.024327993E0,-1.134197950E0,7.800601959E0,8.138408920E0
2.224087188E0,-1.497906923E0,-9.619147182E-1,1.116012478E1,1.130121189E1
2.226462761E0,2.450250387E0,-1.593619823E0,9.638289452E0,1.007174139E1
2.228838386E0,-2.230110645E0,-2.057827413E-1,8.461020470E0,8.752405807E0
2.231214011E0,2.234896421E0,-2.210968018E0,1.193061352E1,1.233785559E1
2.233589636E0,-8.901300430E-1,-1.674975902E-1,6.786045074E0,6.846224849E0
2.235965261E0,5.359922647E-1,-1.942971945E0,1.365823174E1,1.380614797E1
2.238340886E0,3.014956415E-1,-5.120640397E-1,6.192625046E0,6.221070178E0
2.240716459E0,-1.182054400E0,-1.430907965E0,1.302174091E1,1.315334507E1
2.243092084E0,1.885544300E0,-1.124626637E0,7.972885132E0,8.269640845E0
2.245467709E0,-1.722832322E0,-9.906286001E-1,1.098305607E1,1.116140748E1
2.247843334E0,2.258824587E0,-1.531406522E0,9.470791817E0,9.856134744E0
2.250218959E0,-2.230110645E0,-2.775674164E-1,8.762516975E0,9.046111922E0
2.252594532E0,2.297109842E0,-2.263610125E0,1.189232826E1,1.232185521E1
2.254970157E0,-1.177268744E0,-1.052841991E-1,6.996613503E0,7.095748513E0
2.257345782E0,3.732803464E-1,-1.871187329E0,1.365823174E1,1.379086561E1
2.259721407E0,1.052841991E-1,-6.173482537E-1,6.183053493E0,6.214688579E0
2.262097032E0,-8.374879360E-1,-1.473978758E0,1.320359516E1,1.331198425E1
2.264472605E0,1.823330879E0,-1.086341500E0,7.661818027E0,7.950354007E0
2.266848230E0,-1.847259045E0,-8.422735929E-1,1.117926693E1,1.136212127E1
2.269223855E0,2.335394859E0,-1.574477315E0,9.269794464E0,9.688247384E0
2.271599480E0,-2.033899307E0,-2.775674164E-1,9.059226990E0,9.288884955E0
2.273975105E0,2.388036966E0,-2.182254314E0,1.195932770E1,1.238912723E1
2.276350678E0,-1.497906923E0,-4.307080805E-2,7.006184578E0,7.164649509E0
2.278726303E0,4.354937077E-1,-1.808973908E0,1.371565914E1,1.384129138E1
2.281101928E0,1.196411327E-1,-6.604190469E-1,6.273981094E0,6.309778609E0
2.283477553E0,-5.455635786E-1,-1.359123230E0,1.327538013E1,1.335591904E1
2.285853178E0,1.560120344E0,-1.105484009E0,7.264609337E0,7.512031629E0
2.288228751E0,-1.904686809E0,-7.082754970E-1,1.137069321E1,1.155085062E1
2.290604376E0,2.426322222E0,-1.588834286E0,9.154939651E0,9.603351182E0
2.292980001E0,-1.942971945E0,-2.488535494E-1,9.389435768E0,9.591588612E0
2.295355626E0,2.321038008E0,-2.086541414E0,1.177747345E1,1.218399579E1
2.297731251E0,-1.718046665E0,3.828516230E-2,7.116254330E0,7.320807727E0
2.300106823E0,6.077769399E-1,-1.875972986E0,1.364387512E1,1.378564456E1
2.302482448E0,1.770688742E-1,-6.604190469E-1,6.273981094E0,6.311128701E0
2.304858073E0,-5.312066078E-1,-1.349551916E0,1.326102352E1,1.334009804E1
2.307233698E0,1.493121386E0,-1.105484009E0,7.001399040E0,7.243693456E0
2.309609323E0,-1.818545222E0,-8.422735929E-1,1.155254745E1,1.172509634E1
2.311984844E0,2.555534601E0,-1.612762451E0,9.040083885E0,9.531782439E0
2.314360521E0,-2.024327993E0,-1.770688742E-1,9.791430473E0,1.000006840E1
2.316736146E0,2.239681959E0,-2.134397745E0,1.140419292E1,1.181640577E1
2.319111771E0,-1.895115495E0,6.221338734E-2,7.355536938E0,7.596002691E0
2.321487396E0,9.188438654E-1,-2.029113531E0,1.360558987E1,1.378672011E1
2.323862969E0,1.339980662E-1,-6.029912829E-1,6.321837425E0,6.351943199E0
2.326238594E0,-6.364908218E-1,-1.363908887E0,1.316052437E1,1.324631155E1
2.328614219E0,1.359123230E0,-1.071984529E0,6.814758778E0,7.031166616E0
2.330989844E0,-1.584048629E0,-8.709874153E-1,1.183490086E1,1.197216386E1
2.333365469E0,2.732603550E0,-1.603191137E0,9.126225471E0,9.660503886E0
2.335741042E0,-2.359323025E0,-1.962114573E-1,9.676574707E0,9.961977822E0
2.338116615E0,2.139183521E0,-1.952543259E0,1.153819084E1,1.189614976E1
2.340492292E0,-1.866401672E0,-1.818545163E-1,7.245467186E0,7.484204768E0
2.342867917E0,1.143769264E0,-1.890329838E0,1.373958778E1,1.391609958E1
2.345243542E0,-1.196411327E-1,-6.412764788E-1,5.929414749E0,5.965191429E0
2.347619115E0,-6.364908218E-1,-1.201196909E0,1.319402409E1,1.326387071E1
2.349994740E0,1.373480201E0,-1.019342422E0,6.613761902E0,6.831350769E0
2.352370365E0,-1.574477315E0,-9.427721500E-1,1.210768223E1,1.224596942E1
2.354745990E0,2.598605394E0,-1.354337573E0,8.877371788E0,9.348513792E0
2.357121615E0,-2.627319336E0,-1.435693651E-1,9.767501831E0,1.011570616E1
2.359497188E0,2.124826431E0,-1.861616015E0,1.138983536E1,1.173494146E1
2.361872813E0,-1.789831281E0,-2.249253243E-1,7.403393269E0,7.619994705E0
2.364248438E0,1.244267821E0,-1.727617979E0,1.356251907E1,1.372861209E1
2.366624063E0,-5.551348329E-1,-5.551348329E-1,5.637490273E0,5.691893001E0
2.368999688E0,-6.987041831E-1,-1.196411371E0,1.340937805E1,1.348076435E1
2.371375261E0,1.359123230E0,-9.858429432E-1,6.388836384E0,6.605780242E0
2.373750886E0,-1.655833244E0,-9.332008362E-1,1.259103298E1,1.273368600E1
2.376126511E0,2.277967215E0,-1.320838094E0,8.504091263E0,8.902433157E0
2.378502136E0,-2.857030153E0,-1.148554832E-1,9.911071777E0,1.031528753E1
2.380877761E0,2.139183521E0,-1.904686809E0,1.129890823E1,1.165629724E1
2.383253334E0,-1.799402595E0,-2.584248483E-1,7.470392227E0,7.688393404E0
2.385628959E0,1.186840057E0,-1.823330879E0,1.319880962E1,1.337690922E1
2.388004584E0,-7.178468108E-1,-4.307080805E-1,5.733202934E0,5.793999429E0
2.390380209E0,-5.216353536E-1,-1.292124271E0,1.336630726E1,1.343874467E1
2.392755834E0,1.512263894E0,-1.019342422E0,6.431907177E0,6.685464157E0
2.395131407E0,-1.765903115E0,-8.757730722E-1,1.254796219E1,1.270184031E1
2.397507032E0,2.277967215E0,-1.210768223E0,8.513663292E0,8.895929236E0
2.399882657E0,-2.608176708E0,-3.397808075E-1,9.882357597E0,1.022638883E1
2.402258282E0,2.378465652E0,-1.875972986E0,1.133719349E1,1.173491925E1
2.404633855E0,-1.741974831E0,-2.249253243E-1,7.451249599E0,7.655467870E0
2.407009480E0,1.339980721E0,-1.871187329E0,1.300738430E1,1.320942605E1
2.409385105E0,-4.833501875E-1,-5.024927258E-1,5.647061348E0,5.689940967E0
2.411760730E0,-1.722832322E-1,-1.531406522E0,1.365344620E1,1.374014121E1
2.414136355E0,1.651047587E0,-8.757730722E-1,6.422336102E0,6.688747088E0
2.416511928E0,-1.737189293E0,-1.115055323E0,1.257188988E1,1.274023509E1
2.418887553E0,2.388036966E0,-1.239482164E0,8.614161491E0,9.024567291E0
2.421263178E0,-2.201396942E0,-6.508477330E-1,1.002114105E1,1.028071103E1
2.423638803E0,2.694318295E0,-1.856830359E0,1.136590767E1,1.182755373E1
2.426014428E0,-1.880758643E0,-3.541377485E-1,7.264609337E0,7.512470661E0
2.428390001E0,1.517049551E0,-1.947757602E0,1.308395386E1,1.331484313E1
2.430765626E0,-3.110669553E-1,-5.455635786E-1,5.785845280E0,5.819828852E0
2.433141251E0,4.307080805E-2,-1.674975872E0,1.392144203E1,1.402190955E1
2.435516876E0,1.368694544E0,-9.571290612E-1,6.307480335E0,6.524854709E0
2.437892501E0,-1.823330879E0,-1.086341500E0,1.269153118E1,1.286777514E1
2.440268073E0,2.210968018E0,-1.296909928E0,8.647661209E0,9.019556493E0
2.442643698E0,-1.971685886E0,-8.183453679E-1,1.027956581E1,1.049889078E1
2.445019323E0,2.459821701E0,-1.852044702E0,1.089691448E1,1.132358325E1
2.447394948E0,-2.196611166E0,-2.871387303E-1,7.570890903E0,7.888341926E0
2.449770573E0,1.593619823E0,-2.110469580E0,1.282552910E1,1.309533897E1
2.452146146E0,-4.833501875E-1,-5.647061467E-1,6.029912949E0,6.075555168E0
2.454521771E0,-1.387837082E-1,-1.603191137E0,1.406022549E1,1.415201129E1
2.456897396E0,8.470591903E-1,-8.901300430E-1,6.226124287E0,6.346216542E0
2.459273021E0,-1.828116536E0,-1.143769264E0,1.279681587E1,1.297723833E1
2.461648646E0,2.048256159E0,-1.272981644E0,8.580661774E0,8.913113487E0
2.464024219E0,-1.938186288E0,-7.082754970E-1,1.052363396E1,1.072404270E1
2.466399844E0,2.182254314E0,-1.832902193E0,1.039442158E1,1.077802228E1
2.468775469E0,-2.354537487E0,-1.387837082E-1,7.853243828E0,8.199789407E0
2.471151094E0,1.722832322E0,-2.210968018E0,1.281595802E1,1.311889137E1
2.473526719E0,-5.982056856E-1,-3.541377485E-1,6.312266350E0,6.350430699E0
2.475902292E0,-1.962114573E-1,-1.708475351E0,1.392622757E1,1.403200632E1
2.478277917E0,6.556333899E-1,-6.939185858E-1,6.336194515E0,6.407709347E0
2.480653542E0,-1.517049551E0,-1.287338614E0,1.281117249E1,1.296475301E1
2.483029167E0,2.167897224E0,-1.191625714E0,8.508877754E0,8.861193534E0
2.485404740E0,-1.938186288E0,-7.800601721E-1,1.038485050E1,1.059293066E1
2.487780365E0,2.364108801E0,-1.684547186E0,1.025085258E1,1.065395177E1
2.490155990E0,-2.053041935E0,-3.014956415E-1,8.097311974E0,8.358967760E0
2.492531615E0,2.153540373E0,-2.268395901E0,1.266281700E1,1.304340027E1
2.494907240E0,-5.264210105E-1,-2.727817893E-1,6.556334019E0,6.583087782E0
2.497282865E0,1.435693651E-1,-1.828116536E0,1.385922909E1,1.398001621E1
2.499658438E0,7.752745152E-1,-8.327022791E-1,6.436692715E0,6.536471278E0
2.502033959E0,-7.561319470E-1,-1.507478237E0,1.297867012E1,1.308778454E1
2.504409688E0,2.340180635E0,-1.320838094E0,8.293522835E0,8.718003194E0
2.506785313E0,-1.708475351E0,-9.571290612E-1,1.066241741E1,1.084076239E1
2.509160886E0,2.656033039E0,-1.856830359E0,9.891928673E0,1.040925470E1
2.511536511E0,-1.627119422E0,-4.642075896E-1,8.618947029E0,8.783464817E0
2.513912084E0,2.474178553E0,-2.397608280E0,1.251924801E1,1.298467003E1
2.516287761E0,-8.853443861E-1,-3.780659735E-1,6.671189308E0,6.740291933E0
2.518663386E0,4.211367965E-1,-1.971685886E0,1.388315678E1,1.402878981E1
2.521038959E0,8.087740541E-1,-1.024128079E0,6.431907177E0,6.562955411E0
2.523414584E0,-4.689932466E-1,-1.555334687E0,1.319880962E1,1.329840577E1
2.525790209E0,2.029113531E0,-1.426122308E0,7.642675400E0,8.035024196E0
2.528165834E0,-1.775474429E0,-8.422735929E-1,1.093041420E1,1.110566022E1
2.530541459E0,2.694318295E0,-1.923829436E0,9.652647018E0,1.020461000E1
2.532917032E0,-1.804188251E0,-4.211367965E-1,8.949156761E0,9.138919968E0
2.535292657E0,2.268395901E0,-2.383251429E0,1.226082325E1,1.269461674E1
2.537668282E0,-1.339980721E0,-2.440679073E-1,6.910471916E0,7.043418175E0
2.540043907E0,3.541377485E-1,-2.005185366E0,1.370608807E1,1.385651587E1
2.542419532E0,4.546363056E-1,-9.236295223E-1,6.455835342E0,6.537399761E0
2.544795105E0,-6.412764788E-1,-1.445264935E0,1.306002617E1,1.315539090E1
2.547170730E0,1.574477315E0,-1.363908887E0,7.317251682E0,7.607982548E0
2.549546355E0,-1.919043779E0,-8.374879360E-1,1.129412270E1,1.148657140E1
2.551921980E0,2.569891453E0,-1.933400750E0,9.336793900E0,9.875125359E0
2.554297605E0,-2.086541414E0,-2.297109663E-1,9.408578873E0,9.639905529E0
2.556673178E0,2.029113531E0,-2.301895380E0,1.186840057E1,1.225866862E1
2.559048803E0,-1.670190215E0,-1.674975902E-1,7.082755089E0,7.278942948E0
2.561424428E0,6.412764788E-1,-2.062613010E0,1.374915886E1,1.391779355E1
2.563800053E0,2.105683982E-1,-8.135597110E-1,6.340980053E0,6.396424508E0
2.566175626E0,-7.992027402E-1,-1.373480201E0,1.297867012E1,1.307558989E1
2.568551251E0,1.493121386E0,-1.258624673E0,7.025327206E0,7.291691840E0
2.570926876E0,-1.713261008E0,-9.140582681E-1,1.158604717E1,1.174764891E1
2.573302501E0,2.737389088E0,-1.780260086E0,9.346364975E0,9.900361773E0
2.575678126E0,-2.321038008E0,-2.584248483E-1,9.322437286E0,9.610506636E0
2.578053698E0,2.115255117E0,-2.110469580E0,1.182532978E1,1.219700006E1
2.580429323E0,-1.540977836E0,-3.493520916E-1,7.101897717E0,7.275548828E0
2.582804948E0,1.167697430E0,-2.033899307E0,1.384487152E1,1.404210565E1
2.585180573E0,1.579262912E-1,-8.087740541E-1,5.948556900E0,6.005363051E0
2.587556198E0,-5.024927258E-1,-1.344766378E0,1.315573883E1,1.323383390E1
2.589931771E0,1.765903115E0,-1.234696507E0,6.781259537E0,7.115361564E0
2.592307396E0,-1.296909928E0,-1.095912814E0,1.201196957E1,1.213138134E1
2.594683021E0,2.976671457E0,-1.627119422E0,9.150154114E0,9.758760725E0
2.597058646E0,-2.196611166E0,-3.349951804E-1,9.585647583E0,9.839815139E0
2.599434219E0,2.512463808E0,-2.120040894E0,1.166740322E1,1.212168906E1
2.601809844E0,-1.186840057E0,-5.024927258E-1,7.379465103E0,7.491167697E0
2.604185469E0,1.579262972E0,-2.009970903E0,1.363430309E1,1.387185191E1
2.606561094E0,6.699903309E-2,-8.662018180E-1,5.766702652E0,5.831779654E0
2.608936719E0,-2.775674164E-1,-1.440479279E0,1.326102352E1,1.334191774E1
2.611312240E0,1.933400750E0,-1.320838094E0,6.656832695E0,7.056633281E0
2.613687917E0,-1.215553880E0,-1.071984529E0,1.247617722E1,1.258100632E1
2.616063542E0,2.723032236E0,-1.603191137E0,8.733802795E0,9.287865075E0
2.618439167E0,-2.364108801E0,-2.871387303E-1,9.887143135E0,1.016990946E1
2.620814792E0,2.478964329E0,-2.139183521E0,1.149512005E1,1.195237028E1
2.623190365E0,-1.320838094E0,-4.402793646E-1,7.460821152E0,7.589618663E0
2.625565938E0,1.450050473E0,-2.062613010E0,1.339502144E1,1.363024644E1
2.627941615E0,-3.254238665E-1,-6.747759581E-1,5.752345562E0,5.800922578E0
2.630317240E0,-3.302095234E-1,-1.469193101E0,1.353380489E1,1.361732138E1
2.632692865E0,1.708475351E0,-1.205982566E0,6.604190350E0,6.927381334E0
2.635068438E0,-1.607976794E0,-1.052842021E0,1.256231880E1,1.270849792E1
2.637444063E0,2.378465652E0,-1.397408366E0,8.738588333E0,9.163666027E0
2.639819688E0,-2.555534601E0,-4.546363056E-1,9.954142570E0,1.028700178E1
2.642195313E0,2.344966173E0,-2.024327993E0,1.146162033E1,1.187288974E1
2.644570938E0,-1.756331801E0,-3.206382394E-1,7.470392227E0,7.680772767E0
2.646946511E0,1.205982566E0,-1.966900229E0,1.316052437E1,1.336123094E1
2.649322136E0,-6.604190469E-1,-5.551348329E-1,5.699703693E0,5.764629233E0
2.651697761E0,-3.828516304E-1,-1.526620865E0,1.366780281E1,1.375812416E1
2.654073386E0,1.383051515E0,-9.619147182E-1,6.494120598E0,6.709076968E0
2.656449011E0,-2.043470621E0,-1.076770186E0,1.266760349E1,1.287646630E1
2.658824584E0,2.048256159E0,-1.215553880E0,8.614161491E0,8.937376725E0
2.661200209E0,-2.435893536E0,-5.455635786E-1,1.007378292E1,1.037845457E1
2.663575834E0,2.340180635E0,-1.789831281E0,1.135155106E1,1.172764481E1
2.665951459E0,-2.167897224E0,-2.727817893E-1,7.317251682E0,7.636514942E0
2.668327032E0,1.263410330E0,-1.890329838E0,1.301695538E1,1.321403344E1
2.670702657E0,-6.556333899E-1,-5.312066078E-1,5.795416355E0,5.856525107E0
2.673078282E0,-1.244267747E-1,-1.507478237E0,1.392622757E1,1.400813289E1
2.675453907E0,1.115055323E0,-8.757730722E-1,6.259624004E0,6.418194413E0
2.677829532E0,-1.976471543E0,-9.475577474E-1,1.265803146E1,1.284640284E1
2.680205105E0,2.086541414E0,-1.205982566E0,8.599804878E0,8.931108160E0
2.682580730E0,-2.024327993E0,-6.843472719E-1,1.022213840E1,1.044310053E1
2.684956355E0,2.411965132E0,-1.722832322E0,1.084905815E1,1.124667906E1
2.687331928E0,-2.206182480E0,-2.009970993E-1,7.475177765E0,7.796532793E0
2.689707605E0,1.631905079E0,-2.014756680E0,1.286859989E1,1.312719398E1
2.692083178E0,-2.967100143E-1,-4.259224236E-1,6.025127411E0,6.047446326E0
2.694458803E0,9.571290761E-2,-1.545763373E0,1.395015621E1,1.403586135E1
2.696834428E0,1.033699393E0,-8.231309652E-1,6.187839508E0,6.327356225E0
2.699210053E0,-1.550549030E0,-1.134197950E0,1.279202938E1,1.293547923E1
2.701585678E0,2.297109842E0,-1.301695466E0,8.499305725E0,8.899961939E0
2.703961251E0,-1.741974831E0,-6.891329288E-1,1.045184898E1,1.061840514E1
2.706336876E0,2.493321180E0,-1.818545222E0,1.037527943E1,1.082451756E1
2.708712501E0,-2.024327993E0,-1.244267747E-1,7.709674358E0,7.971979965E0
2.711088126E0,1.938186288E0,-2.158325911E0,1.271067429E1,1.303749123E1
2.713463698E0,-2.919243574E-1,-2.967100143E-1,6.254838467E0,6.268672978E0
2.715839323E0,6.221338734E-2,-1.684547186E0,1.381137276E1,1.391386313E1
2.718214948E0,8.087740541E-1,-6.747759581E-1,6.321837425E0,6.408983265E0
2.720590573E0,-1.296909928E0,-1.263410330E0,1.267717457E1,1.280581649E1
2.722966198E0,2.301895380E0,-1.201196909E0,8.542376518E0,8.928258113E0
2.725341771E0,-1.823330879E0,-7.848458290E-1,1.036570740E1,1.055407070E1
2.727717396E0,2.364108801E0,-1.631905079E0,1.017906761E1,1.057665080E1
2.730093021E0,-2.076970100E0,-1.722832322E-1,8.054241180E0,8.319512444E0
2.732468646E0,2.033899307E0,-2.230110645E0,1.257188988E1,1.292913589E1
2.734844219E0,-7.704889178E-1,-1.531406492E-1,6.474977970E0,6.522456971E0
2.737219844E0,-1.435693651E-1,-1.670190215E0,1.379701519E1,1.389848106E1
2.739595469E0,4.354937077E-1,-7.369893789E-1,6.269195557E0,6.327370784E0
2.741971094E0,-1.205982566E0,-1.344766378E0,1.294995594E1,1.307532598E1
2.744346667E0,1.928615093E0,-1.100698471E0,8.178668022E0,8.474768665E0
2.746722292E0,-2.277967215E0,-7.800601721E-1,1.048534870E1,1.075826036E1
2.749097917E0,2.139183521E0,-1.679761529E0,9.887143135E0,1.025442852E1
2.751473542E0,-2.234896421E0,-2.488535494E-1,8.451449394E0,8.745495239E0
2.753849167E0,1.928615093E0,-2.129612207E0,1.251446247E1,1.284003798E1
2.756224792E0,-1.464407444E0,-1.244267747E-1,6.628118515E0,6.789103493E0
2.758600365E0,-2.775674164E-1,-1.631905079E0,1.374915886E1,1.384844855E1
2.760975990E0,2.297109663E-1,-7.609176040E-1,6.412764549E0,6.461835025E0
2.763351615E0,-1.143769264E0,-1.253839016E0,1.301695538E1,1.312712641E1
2.765727240E0,1.421336651E0,-1.134197950E0,7.633104324E0,7.846711699E0
2.768102813E0,-2.277967215E0,-5.359922647E-1,1.086820030E1,1.111729284E1
2.770478438E0,2.134397745E0,-1.660618901E0,9.571290970E0,9.946000186E0
2.772854063E0,-2.254039049E0,-1.531406492E-1,8.925228119E0,9.206728033E0
2.775229688E0,1.842473388E0,-2.062613010E0,1.216989613E1,1.248020242E1
2.777605313E0,-1.636690736E0,-2.871387079E-2,6.805187702E0,6.999297158E0
2.779980886E0,5.264209956E-2,-1.703689694E0,1.363908863E1,1.374518346E1
2.782356511E0,3.302095234E-1,-7.322037220E-1,6.417550564E0,6.467620572E0
2.784732136E0,-8.470591903E-1,-1.205982566E0,1.292602825E1,1.300976977E1
2.787107761E0,1.545763373E0,-1.004985452E0,7.312466145E0,7.541322250E0
2.789483386E0,-1.966900229E0,-6.125625968E-1,1.103569794E1,1.122633326E1
2.791858959E0,2.612962246E0,-1.651047587E0,9.461220741E0,9.953302354E0
2.794234584E0,-1.990828395E0,-9.571290575E-3,9.159725189E0,9.373582818E0
2.796610209E0,2.120040894E0,-2.076970100E0,1.195932770E1,1.232208981E1
2.798985834E0,-1.416550994E0,9.571290575E-3,6.905686378E0,7.049483150E0
2.801361407E0,8.039883971E-1,-1.808973908E0,1.370130253E1,1.384357161E1
2.803737032E0,5.886343718E-1,-7.034898400E-1,6.245266914E0,6.312269577E0
2.806112657E0,-5.934200287E-1,-1.196411371E0,1.289252853E1,1.296151378E1
2.808488282E0,1.842473388E0,-1.067198873E0,7.006184578E0,7.322584514E0
2.810863855E0,-1.426122308E0,-7.226324677E-1,1.149512005E1,1.160576613E1
2.813239480E0,3.058027267E0,-1.655833244E0,9.355937004E0,9.981326151E0
2.815615105E0,-2.072184324E0,-1.052841991E-1,9.274580956E0,9.503835254E0
2.817990730E0,2.335394859E0,-2.000399828E0,1.188275719E1,1.227418376E1
2.820366355E0,-1.239482164E0,-3.397808075E-1,7.039684296E0,7.156040946E0
2.822741928E0,1.239482164E0,-1.866401672E0,1.380658627E1,1.398719398E1
2.825117553E0,2.871387303E-1,-8.039883971E-1,5.876772404E0,5.938459386E0
2.827493178E0,-6.077769399E-1,-1.258624673E0,1.309831142E1,1.317267213E1
2.829868803E0,1.804188251E0,-1.196411371E0,6.843472958E0,7.177716736E0
2.832244428E0,-1.459621787E0,-9.523434043E-1,1.194018459E1,1.206670882E1
2.834620001E0,2.785245657E0,-1.627119422E0,9.164510727E0,9.715624933E0
2.836995626E0,-2.483749866E0,-1.579262912E-1,9.437292099E0,9.759940383E0
2.839371251E0,2.076970100E0,-2.062613010E0,1.172004509E1,1.208005108E1
2.841746876E0,-1.517049551E0,-3.541377485E-1,7.202396393E0,7.368946104E0
2.844122501E0,1.014556766E0,-1.842473388E0,1.365344620E1,1.381450783E1
2.846498073E0,-2.536391914E-1,-8.135597110E-1,5.723631859E0,5.786723935E0
2.848873698E0,-8.135597110E-1,-1.249053478E0,1.317966747E1,1.326369664E1
2.851249323E0,1.569691658E0,-1.220339537E0,6.719046116E0,7.007049393E0
2.853624948E0,-1.770688772E0,-8.901300430E-1,1.228475189E1,1.244358466E1
2.856000417E0,2.325823545E0,-1.540977836E0,8.915657043E0,9.342002375E0
2.858376146E0,-2.880958557E0,-1.579262912E-1,9.566504478E0,9.992140454E0
2.860751771E0,1.976471543E0,-2.062613010E0,1.177747345E1,1.211898069E1
2.863127396E0,-1.670190215E0,-4.067798555E-1,7.235895634E0,7.437283834E0
2.865503021E0,8.518448472E-1,-1.890329838E0,1.344287777E1,1.360183625E1
2.867878594E0,-5.551348329E-1,-6.364908218E-1,5.656632900E0,5.719334840E0
2.870254219E0,-8.518448472E-1,-1.373480201E0,1.341894913E1,1.351592702E1
2.872629844E0,1.584048629E0,-1.196411371E0,6.690331936E0,6.978621041E0
2.875005469E0,-2.009970903E0,-9.619147182E-1,1.236132145E1,1.256055456E1
2.877381094E0,2.210968018E0,-1.426122308E0,8.920442581E0,9.300349470E0
2.879756667E0,-2.703889608E0,-3.637090325E-1,9.671789169E0,1.004921932E1
2.882132292E0,2.215753794E0,-2.105684042E0,1.172961617E1,1.212135989E1
2.884507917E0,-1.670190215E0,-3.828516304E-1,7.226324558E0,7.426700300E0
2.886883542E0,1.134197950E0,-1.947757602E0,1.333759308E1,1.352669782E1
2.889259115E0,-2.727817893E-1,-7.130611539E-1,5.575276852E0,5.627306468E0
2.891634740E0,-3.684946895E-1,-1.550549030E0,1.371087360E1,1.380318969E1
2.894010365E0,1.895115495E0,-1.100698471E0,6.714260101E0,7.062881039E0
2.896385990E0,-1.823330879E0,-1.091127157E0,1.236132145E1,1.254262181E1
2.898761615E0,2.493321180E0,-1.426122308E0,8.987442017E0,9.435284275E0
2.901137188E0,-2.048256159E0,-6.269195080E-1,9.738788605E0,9.971578854E0
2.903512813E0,2.694318295E0,-2.072184324E0,1.170568848E1,1.218919364E1
2.905888438E0,-1.607976794E0,-4.546363056E-1,7.063612461E0,7.258574553E0
2.908264063E0,1.406979680E0,-1.942971945E0,1.328495121E1,1.349980224E1
2.910639636E0,1.292124242E-1,-7.561319470E-1,5.704489231E0,5.755834324E0
2.913015261E0,3.349951655E-2,-1.588834286E0,1.393101311E1,1.402136380E1
2.915390886E0,1.804188251E0,-1.119840980E0,6.474977970E0,6.814284906E0
2.917766511E0,-1.679761529E0,-1.028913736E0,1.255753326E1,1.271109374E1
2.920142136E0,2.584248543E0,-1.473978758E0,9.025727272E0,9.503405006E0
2.922517709E0,-1.756331801E0,-7.561319470E-1,9.891928673E0,1.007505284E1
2.924893334E0,2.718246460E0,-2.005185366E0,1.138026428E1,1.187097499E1
2.927268959E0,-1.775474429E0,-3.349951804E-1,7.168896675E0,7.393078571E0
2.929644584E0,1.569691658E0,-2.053041935E0,1.323230934E1,1.348231892E1
2.932020157E0,1.052841991E-1,-6.891329288E-1,5.938985825E0,5.979760997E0
2.934395782E0,-1.914258152E-1,-1.593619823E0,1.388315678E1,1.397563272E1
2.936771407E0,1.411765337E0,-1.052842021E0,6.675975323E0,6.904361245E0
2.939147032E0,-1.737189293E0,-1.143769264E0,1.242832088E1,1.260115847E1
2.941522657E0,2.421536446E0,-1.454836130E0,9.035298347E0,9.466625753E0
2.943898230E0,-1.866401672E0,-6.604190469E-1,1.001156998E1,1.020544668E1
2.946273855E0,2.373680115E0,-1.966900229E0,1.087777138E1,1.130614717E1
2.948649480E0,-1.986042738E0,-2.440679073E-1,7.417750359E0,7.682900187E0
2.951025105E0,1.507478237E0,-2.220539331E0,1.315573883E1,1.342671776E1
2.953400730E0,-1.292124242E-1,-4.881358147E-1,6.183053493E0,6.203637879E0
2.955776303E0,-5.694918036E-1,-1.636690736E0,1.377787304E1,1.388642729E1
2.958151928E0,1.043270707E0,-8.662018180E-1,6.790830612E0,6.924889874E0
2.960527553E0,-1.746760488E0,-1.306481123E0,1.230389404E1,1.249575423E1
2.962903178E0,2.244467735E0,-1.311266780E0,9.164510727E0,9.526033427E0
2.965278751E0,-2.210968018E0,-7.322037220E-1,9.796216011E0,1.006927753E1
2.967654376E0,2.120040894E0,-1.923829436E0,1.072941685E1,1.110477730E1
2.970030001E0,-2.096112728E0,-2.392822653E-1,7.623532772E0,7.910069311E0
2.972405626E0,1.536192179E0,-2.249253273E0,1.318923855E1,1.346755509E1
2.974781198E0,-4.881358147E-1,-3.445664644E-1,6.139982700E0,6.168986155E0
2.977156823E0,-7.130611539E-1,-1.598405480E0,1.381137276E1,1.392183083E1
2.979532448E0,8.279166222E-1,-9.523434043E-1,6.599404812E0,6.718969249E0
2.981908073E0,-1.397408366E0,-1.296909928E0,1.253839111E1,1.268250674E1
2.984283698E0,2.215753794E0,-1.311266780E0,8.767302513E0,9.137536802E0
2.986659271E0,-2.210968018E0,-6.269195080E-1,9.877572060E0,1.014139228E1
2.989034896E0,2.368894339E0,-1.947757602E0,1.053320503E1,1.097058924E1
2.991410521E0,-1.737189293E0,-2.775674164E-1,7.877171993E0,8.071227225E0
2.993786146E0,1.842473388E0,-2.196611166E0,1.312702465E1,1.343646475E1
2.996161771E0,-5.838487148E-1,-3.110669553E-1,6.168696880E0,6.204068276E0
2.998537344E0,-3.062812984E-1,-1.617548108E0,1.371087360E1,1.380935643E1
3.000912969E0,1.158126116E0,-9.667003751E-1,6.719046116E0,6.886315882E0
3.003288594E0,-8.422735929E-1,-1.292124271E0,1.254317665E1,1.263765368E1
3.005664219E0,2.373680115E0,-1.397408366E0,8.341380119E0,8.784402639E0
3.008039792E0,-1.818545222E0,-5.120640397E-1,1.011206818E1,1.028704229E1
3.010415417E0,2.785245657E0,-2.048256159E0,1.043749237E1,1.099518957E1
3.012791042E0,-1.339980721E0,-2.823530734E-1,8.159524918E0,8.273639977E0
3.015166667E0,2.124826431E0,-2.306680918E0,1.295474148E1,1.332895311E1
3.017542292E0,-4.163511395E-1,-3.684946895E-1,6.360122681E0,6.384379149E0
3.019917865E0,1.627119333E-1,-1.775474429E0,1.370130253E1,1.381681858E1
3.022293490E0,1.464407444E0,-1.095912814E0,6.800402164E0,7.042086598E0
3.024669115E0,-6.939185858E-1,-1.406979680E0,1.247139168E1,1.256967483E1
3.027044740E0,2.368894339E0,-1.402194023E0,8.087740898E0,8.543381140E0
3.029420313E0,-1.694118381E0,-7.082754970E-1,1.042792130E1,1.058835369E1
3.031795938E0,2.909672260E0,-2.182254314E0,1.030827999E1,1.093110529E1
3.034171563E0,-1.627119422E0,-1.483550072E-1,8.446663857E0,8.603235271E0
3.036547188E0,1.837687731E0,-2.349751949E0,1.275853062E1,1.310261554E1
3.038922761E0,-7.944171429E-1,-4.307080805E-1,6.479763508E0,6.542472252E0
3.041298386E0,1.387837082E-1,-1.914258122E0,1.379701519E1,1.392986982E1
3.043673959E0,9.188438654E-1,-1.028913736E0,6.556334019E0,6.699884573E0
3.046049636E0,-1.234696507E0,-1.335195065E0,1.253839111E1,1.266958851E1
3.048425261E0,1.933400750E0,-1.383051515E0,7.862815380E0,8.214300680E0
3.050800834E0,-2.000399828E0,-7.561319470E-1,1.079641533E1,1.100617640E1
3.053176459E0,2.579462767E0,-2.029113531E0,1.030827999E1,1.081811288E1
3.055552084E0,-2.421536446E0,-1.627119333E-1,8.384450912E0,8.728650012E0
3.057927709E0,1.402194023E0,-2.124826431E0,1.277288723E1,1.302411930E1
3.060303334E0,-1.205982566E0,-4.881358147E-1,6.589833736E0,6.717036489E0
3.062678907E0,1.052841991E-1,-1.765903115E0,1.383051491E1,1.394319336E1
3.065054532E0,3.302095234E-1,-9.332008362E-1,6.273981094E0,6.351593572E0
3.067430157E0,-1.579262972E0,-1.143769264E0,1.263410378E1,1.278369500E1
3.069805782E0,1.718046665E0,-1.330409408E0,7.623532772E0,7.927163772E0
3.072181303E0,-2.096112728E0,-7.034898400E-1,1.111226845E1,1.133009694E1
3.074556980E0,2.301895380E0,-1.799402595E0,1.002114105E1,1.043838302E1
3.076932605E0,-2.742174864E0,-1.435693540E-2,8.590232849E0,9.017307220E0
3.079308230E0,1.469193101E0,-2.057827473E0,1.264367485E1,1.289401784E1
3.081683855E0,-1.186840057E0,-4.642075896E-1,6.666403770E0,6.787121425E0
3.084059428E0,2.727817893E-1,-1.579262972E0,1.376351547E1,1.385650893E1
3.086435053E0,2.632105052E-1,-9.140582681E-1,5.900700569E0,5.976876232E0
3.088810678E0,-1.316052437E0,-1.086341500E0,1.267717457E1,1.279151621E1
3.091186303E0,2.115255117E0,-1.320838094E0,7.590033531E0,7.989213133E0
3.093561876E0,-1.828116536E0,-6.221339107E-1,1.136590767E1,1.152878648E1
3.095937501E0,2.603390932E0,-1.770688772E0,9.834501266E0,1.032619960E1
3.098313126E0,-2.455035925E0,-8.135596663E-2,8.642875671E0,8.985161104E0
3.100688751E0,2.033899307E0,-2.148754835E0,1.275853062E1,1.309709881E1
3.103064323E0,-6.652047038E-1,-5.072783828E-1,6.604190350E0,6.656963184E0
3.105439948E0,6.221339107E-1,-1.708475351E0,1.364866066E1,1.376923660E1
3.107815573E0,5.886343718E-1,-8.901300430E-1,5.828916073E0,5.925798216E0
3.110191198E0,-8.087740541E-1,-1.287338614E0,1.294995594E1,1.303889240E1
3.112566823E0,2.522035122E0,-1.363908887E0,7.508677483E0,8.037483819E0
3.114942396E0,-1.775474429E0,-6.987041831E-1,1.144726372E1,1.160518607E1
3.117318021E0,2.708675146E0,-1.741974831E0,9.805787086E0,1.032108801E1
3.119693646E0,-2.292324066E0,-2.823530734E-1,8.748159409E0,9.047915004E0
3.122069271E0,2.316252232E0,-2.201396942E0,1.264846039E1,1.304586996E1
3.124444844E0,-8.470591903E-1,-5.120640397E-1,6.508477688E0,6.583312287E0
3.126820469E0,5.647061467E-1,-1.708475351E0,1.354337597E1,1.366238682E1
3.129196094E0,4.642075896E-1,-9.044869542E-1,5.699703693E0,5.789663853E0
3.131571719E0,-8.470591903E-1,-1.378265858E0,1.320359516E1,1.330233255E1
3.133947344E0,2.297109842E0,-1.229910851E0,7.618747234E0,8.051999984E0
3.136322917E0,-2.273181438E0,-7.274180651E-1,1.145683479E1,1.170280113E1
3.138698542E0,2.388036966E0,-1.588834286E0,9.906285286E0,1.031317619E1
3.141074167E0,-2.306680918E0,-3.684946895E-1,8.786444664E0,9.091654141E0
3.143449792E0,2.096112728E0,-2.005185366E0,1.253360462E1,1.286490193E1
3.145825313E0,-1.564906001E0,-3.828516304E-1,6.369693756E0,6.570274325E0
3.148200990E0,2.823530734E-1,-1.598405480E0,1.354816151E1,1.364504685E1
3.150576615E0,1.914258152E-1,-7.992027402E-1,5.709274769E0,5.768118172E0
3.152952240E0,-1.052842021E0,-1.263410330E0,1.344766331E1,1.354785335E1
3.155327865E0,1.732403636E0,-1.076770186E0,7.216753006E0,7.499478671E0
3.157703438E0,-2.574677229E0,-5.359922647E-1,1.158604717E1,1.188077184E1
3.160079063E0,2.158325911E0,-1.483550072E0,9.810572624E0,1.015414333E1
3.162454688E0,-2.340180635E0,-3.445664644E-1,8.867800713E0,9.177857099E0
3.164830313E0,1.909472466E0,-1.885544300E0,1.219861031E1,1.249029446E1
3.167205886E0,-1.737189293E0,-2.297109663E-1,6.321837425E0,6.560199860E0
3.169581511E0,4.546363056E-1,-1.622333765E0,1.357209015E1,1.367626747E1
3.171957136E0,3.732803464E-1,-6.795616150E-1,5.761917114E0,5.813848212E0
3.174332761E0,-1.014556766E0,-1.167697430E0,1.355773354E1,1.364569461E1
3.176708334E0,1.679761529E0,-9.523434043E-1,7.144968510E0,7.401292573E0
3.179083959E0,-2.301895380E0,-6.891329288E-1,1.151904774E1,1.176699143E1
3.181459584E0,2.450250387E0,-1.421336651E0,9.824930191E0,1.022512484E1
3.183835209E0,-1.995614052E0,-3.349951804E-1,8.901300430E0,9.128408764E0
3.186210834E0,2.163111687E0,-1.899901152E0,1.174875927E1,1.209636396E1
3.188586407E0,-1.478764415E0,-1.244267747E-1,6.412764549E0,6.582231793E0
3.190962032E0,9.762716293E-1,-1.813759565E0,1.353859043E1,1.369438794E1
3.193337657E0,7.082754970E-1,-5.503492355E-1,5.852844238E0,5.921175908E0
3.195713282E0,-9.236295223E-1,-1.268195987E0,1.341416359E1,1.350559874E1
3.198088855E0,1.785045743E0,-8.614161611E-1,7.207181931E0,7.474750664E0
3.200464480E0,-1.741974831E0,-9.140582681E-1,1.156211948E1,1.172828145E1
3.202840105E0,2.766103029E0,-1.392622828E0,9.777072906E0,1.025582171E1
3.205215730E0,-1.966900229E0,-3.924229145E-1,8.733802795E0,8.961138517E0
3.207591355E0,2.321038008E0,-1.861616015E0,1.155733299E1,1.193418525E1
3.209966928E0,-1.263410330E0,-1.387837082E-1,6.699903488E0,6.819396845E0
3.212342553E0,1.263410330E0,-1.923829436E0,1.358644676E1,1.378001673E1
3.214718178E0,4.737788737E-1,-4.450650215E-1,5.852844238E0,5.888831376E0
3.217093803E0,-9.571290612E-1,-1.292124271E0,1.342373466E1,1.351970168E1
3.219469376E0,1.674975872E0,-8.853443861E-1,7.159325123E0,7.405762288E0
3.221845001E0,-1.416550994E0,-1.004985452E0,1.173918819E1,1.186697737E1
3.224220626E0,2.550748825E0,-1.320838094E0,9.442078590E0,9.869335385E0
3.226596251E0,-2.254039049E0,-2.727817893E-1,8.800801277E0,9.088960615E0
3.228971876E0,2.292324066E0,-1.909472466E0,1.138504982E1,1.176946023E1
3.231347448E0,-1.306481123E0,-1.339980662E-1,6.896114826E0,7.020060406E0
3.233723073E0,1.153340459E0,-1.847259045E0,1.362473202E1,1.379767672E1
3.236098698E0,-2.392822690E-2,-4.019941986E-1,5.862415314E0,5.876230527E0
3.238474323E0,-9.906286001E-1,-1.311266780E0,1.335195065E1,1.345270797E1
3.240849896E0,1.464407444E0,-9.236295223E-1,7.207181931E0,7.412223151E0
3.243225521E0,-1.450050473E0,-9.092726111E-1,1.178704453E1,1.191066084E1
3.245601146E0,2.220539331E0,-1.335195065E0,8.949156761E0,9.316702610E0
3.247976771E0,-2.321038008E0,-1.866401732E-1,9.154939651E0,9.446426415E0
3.250352344E0,2.273181438E0,-1.990828395E0,1.120798111E1,1.160816920E1
3.252727969E0,-1.435693622E0,-2.871387079E-2,7.259823799E0,7.400478515E0
3.255103594E0,1.014556766E0,-1.952543259E0,1.345723438E1,1.363594177E1
3.257479219E0,-3.110669553E-1,-2.297109663E-1,6.034698486E0,6.047074962E0
3.259854844E0,-8.470591903E-1,-1.402194023E0,1.339023590E1,1.349007320E1
3.262230417E0,1.459621787E0,-9.475577474E-1,7.221538544E0,7.428255541E0
3.264606042E0,-1.512263894E0,-9.906286001E-1,1.170568848E1,1.184446832E1
3.266981667E0,2.110469580E0,-1.311266780E0,8.815158844E0,9.158631331E0
3.269357292E0,-2.254039049E0,-2.536391914E-1,9.341579437E0,9.613018842E0
3.271732865E0,2.426322222E0,-2.081755638E0,1.115055370E1,1.159981008E1
3.274108490E0,-1.584048629E0,6.699903309E-2,7.546962738E0,7.711701855E0
3.276484115E0,9.954141974E-1,-1.981257200E0,1.333759308E1,1.352063677E1
3.278859740E0,-4.115654826E-1,-3.302095234E-1,6.106483459E0,6.129238510E0
3.281235365E0,-4.354937077E-1,-1.512263894E0,1.353380489E1,1.362499438E1
3.283610938E0,1.349551916E0,-9.667003751E-1,7.015756130E0,7.209482233E0
3.285986563E0,-1.636690736E0,-9.667003751E-1,1.186361504E1,1.201493354E1
3.288362188E0,2.220539331E0,-1.344766378E0,8.470592499E0,8.859465493E0
3.290737813E0,-1.986042738E0,-4.546363056E-1,9.796216011E0,1.000584370E1
3.293113386E0,2.660818815E0,-2.048256159E0,1.112662506E1,1.162226722E1
3.295489011E0,-1.856830359E0,-4.307080805E-2,7.551748276E0,7.776797290E0
3.297864636E0,1.129412293E0,-1.981257200E0,1.339980698E1,1.359248981E1
3.300240261E0,-3.397808075E-1,-5.503492355E-1,6.221338749E0,6.254869392E0
3.302615834E0,-1.914258115E-2,-1.560120344E0,1.367258835E1,1.376132312E1
3.304991459E0,1.201196909E0,-1.119840980E0,6.680760860E0,6.879642688E0
3.307367084E0,-1.531406522E0,-1.019342422E0,1.198804188E1,1.212837223E1
3.309742709E0,2.383251429E0,-1.473978758E0,8.465806961E0,8.917532633E0
3.312118334E0,-1.794616938E0,-5.647061467E-1,1.023649502E1,1.040794760E1
3.314493907E0,2.641676188E0,-2.129612207E0,1.089212894E1,1.140842558E1
3.316869532E0,-2.043470621E0,-1.339980662E-1,7.905886173E0,8.166808670E0
3.319245157E0,1.349551916E0,-2.206182480E0,1.329452229E1,1.354373856E1
3.321620782E0,-2.632105052E-1,-7.082754970E-1,6.460621357E0,6.504656968E0
3.323996355E0,1.100698411E-1,-1.670190215E0,1.371565914E1,1.381741497E1
3.326371980E0,9.762716293E-1,-1.244267821E0,6.441478729E0,6.632794051E0
3.328747605E0,-1.430907965E0,-1.119840980E0,1.227996540E1,1.241366552E1
3.331123230E0,2.435893536E0,-1.641476393E0,8.365307808E0,8.866024858E0
3.333498803E0,-1.952543259E0,-5.838487148E-1,1.071027374E1,1.090244322E1
3.335874428E0,2.344966173E0,-2.172683001E0,1.060499001E1,1.107633652E1
3.338250053E0,-2.340180635E0,-1.770688742E-1,8.121239662E0,8.453539640E0
3.340625678E0,1.445264935E0,-2.277967215E0,1.337109280E1,1.364052961E1
3.343001251E0,-5.024927258E-1,-6.987041831E-1,6.455835342E0,6.512948368E0
3.345376876E0,-1.770688742E-1,-1.679761529E0,1.361037540E1,1.371478293E1
3.347752501E0,7.609176040E-1,-1.119840980E0,6.293123722E0,6.437114695E0
3.350128126E0,-1.502692580E0,-1.249053478E0,1.258146191E1,1.273229764E1
3.352503751E0,2.421536446E0,-1.531406522E0,8.365307808E0,8.842365035E0
3.354879323E0,-2.263610125E0,-5.886343718E-1,1.073898792E1,1.099073623E1
3.357254948E0,2.249253273E0,-1.990828395E0,1.065284634E1,1.106822809E1
3.359630573E0,-2.407179594E0,-3.349951804E-1,8.193024635E0,8.545898902E0
3.362006198E0,1.579262972E0,-2.234896421E0,1.329452229E1,1.357325150E1
3.364381771E0,-7.752745152E-1,-6.891329288E-1,6.336194515E0,6.420538584E0
3.366757396E0,-1.818545163E-1,-1.607976794E0,1.364387512E1,1.373950468E1
3.369133021E0,6.556333899E-1,-1.148554921E0,6.096911907E0,6.238699252E0
3.371508646E0,-1.359123230E0,-1.306481123E0,1.287817192E1,1.301543011E1
3.373884271E0,2.383251429E0,-1.426122308E0,8.245666504E0,8.700846413E0
3.376259844E0,-2.579462767E0,-5.982056856E-1,1.088255692E1,1.120006800E1
3.378635469E0,2.177468538E0,-1.919043779E0,1.051406288E1,1.090731940E1
3.381011094E0,-2.143969059E0,-4.546363056E-1,8.384450912E0,8.666159161E0
3.383386719E0,1.852044702E0,-2.182254314E0,1.308395386E1,1.339336224E1
3.385762292E0,-1.062413216E0,-5.982056856E-1,6.092126369E0,6.212936148E0
3.388137917E0,-2.871387079E-2,-1.607976794E0,1.363908863E1,1.373357756E1
3.390513542E0,9.188438654E-1,-1.124626637E0,5.977271080E0,6.151164823E0
3.392889167E0,-1.081555843E0,-1.292124271E0,1.326102352E1,1.336765099E1
3.395264740E0,2.287538528E0,-1.426122308E0,7.934599876E0,8.380007909E0
3.397640365E0,-2.416750908E0,-5.407779217E-1,1.096869946E1,1.124479851E1
3.400015990E0,2.469393015E0,-1.981257200E0,1.058584690E1,1.104913737E1
3.402391615E0,-1.856830359E0,-5.503492355E-1,8.279166222E0,8.502664088E0
3.404767240E0,2.005185366E0,-2.158325911E0,1.287338543E1,1.320618005E1
3.407142813E0,-1.033699393E0,-5.599204898E-1,6.001199245E0,6.115262691E0
3.409518438E0,2.440679073E-1,-1.737189293E0,1.364387512E1,1.375618858E1
3.411894063E0,1.138983607E0,-1.076770186E0,6.029912949E0,6.230294364E0
3.414269636E0,-1.067198873E0,-1.354337573E0,1.326580906E1,1.337740011E1
3.416645261E0,2.230110645E0,-1.277767301E0,7.848458290E0,8.258594329E0
3.419020886E0,-2.287538528E0,-7.848458290E-1,1.093519974E1,1.119943788E1
3.421396511E0,2.627319336E0,-1.808973908E0,1.054756260E1,1.101935889E1
3.423772136E0,-1.794616938E0,-4.929214716E-1,8.336593628E0,8.541803957E0
3.426147709E0,2.062613010E0,-2.177468538E0,1.247139168E1,1.282697751E1
3.428523334E0,-1.000199914E0,-4.019941986E-1,6.063412666E0,6.158487831E0
3.430898959E0,5.359922647E-1,-1.890329838E0,1.375872993E1,1.389831947E1
3.433274584E0,1.182054400E0,-8.901300430E-1,6.025127411E0,6.204171533E0
3.435650157E0,-1.253839016E0,-1.335195065E0,1.320838070E1,1.333477330E1
3.438025782E0,2.124826431E0,-1.153340459E0,7.862815380E0,8.226113741E0
3.440401355E0,-1.928615093E0,-9.188438654E-1,1.088255692E1,1.109026038E1
3.442777032E0,2.780459881E0,-1.746760488E0,1.046620655E1,1.096921186E1
3.445152657E0,-1.981257200E0,-4.498506486E-1,8.111668587E0,8.362231339E0
3.447528230E0,2.053041935E0,-2.096112728E0,1.231346512E1,1.265820260E1
3.449903855E0,-8.566305041E-1,-3.828516304E-1,6.259624004E0,6.329556372E0
3.452279480E0,7.800601721E-1,-1.938186288E0,1.380658627E1,1.396377042E1
3.454655053E0,9.810572863E-1,-7.322037220E-1,5.962913990E0,6.087276808E0
3.457030678E0,-1.225125194E0,-1.373480201E0,1.316530991E1,1.329333534E1
3.459406303E0,2.024327993E0,-1.076770186E0,7.810173035E0,8.139787509E0
3.461781928E0,-1.598405480E0,-9.667003751E-1,1.107876873E1,1.123514692E1
3.464157553E0,2.646461725E0,-1.655833244E0,1.007378292E1,1.054640440E1
3.466533126E0,-2.105684042E0,-2.871387303E-1,8.279166222E0,8.547569670E0
3.468908751E0,2.153540373E0,-2.143969059E0,1.205982590E1,1.243678978E1
3.471284376E0,-8.327022791E-1,-3.206382394E-1,6.446264267E0,6.507728096E0
3.473660001E0,8.518448472E-1,-1.804188251E0,1.390229988E1,1.404473841E1
3.476035573E0,4.977070987E-1,-6.652047038E-1,5.871986866E0,5.930467048E0
3.478411198E0,-1.210768223E0,-1.272981644E0,1.325623703E1,1.337214501E1
3.480786823E0,1.957328916E0,-1.115055323E0,7.666603565E0,7.990700538E0
3.483162448E0,-1.473978758E0,-9.619147182E-1,1.131326580E1,1.144936140E1
3.485538073E0,2.445464849E0,-1.555334687E0,9.533005714E0,9.963812637E0
3.487913646E0,-2.167897224E0,-2.297109663E-1,8.595019341E0,8.867181230E0
3.490289271E0,2.311466694E0,-2.177468538E0,1.186840057E1,1.228589352E1
3.492664896E0,-8.901300430E-1,-2.440679073E-1,6.829115868E0,6.891206293E0
3.495040521E0,7.561319470E-1,-1.914258122E0,1.374437332E1,1.389762273E1
3.497416094E0,2.823530734E-1,-4.977070987E-1,6.068198204E0,6.095118133E0
3.499791719E0,-9.858429432E-1,-1.426122308E0,1.319880962E1,1.331218564E1
3.502167344E0,1.928615093E0,-1.100698471E0,7.733603001E0,8.046098972E0
3.504542969E0,-1.526620865E0,-9.571290612E-1,1.127019501E1,1.141332392E1
3.506918542E0,2.383251429E0,-1.536192179E0,9.365508080E0,9.785321424E0
3.509294167E0,-2.100898266E0,-2.536391914E-1,8.834300995E0,9.084216005E0
3.511669792E0,2.459821701E0,-2.254039049E0,1.177268696E1,1.223632188E1
3.514045417E0,-1.076770186E0,-1.100698411E-1,7.101897717E0,7.183905663E0
3.516420990E0,7.274180651E-1,-1.942971945E0,1.363430309E1,1.379124715E1
3.518796615E0,1.339980662E-1,-6.125625968E-1,6.178267956E0,6.210006711E0
3.521172240E0,-5.503492355E-1,-1.497906923E0,1.328495121E1,1.338045358E1
3.523547865E0,1.761117458E0,-1.091127157E0,7.551748276E0,7.830772324E0
3.525923490E0,-1.689332843E0,-9.044869542E-1,1.137069321E1,1.153102797E1
3.528299063E0,2.373680115E0,-1.574477315E0,9.092725754E0,9.528431022E0
3.530674688E0,-1.942971945E0,-3.589234054E-1,9.231510162E0,9.440590335E0
3.533050313E0,2.517249346E0,-2.206182480E0,1.173440266E1,1.220245840E1
3.535425938E0,-1.574477315E0,-8.614161611E-2,7.130611420E0,7.302877406E0
3.537801511E0,6.891329288E-1,-1.919043779E0,1.371565914E1,1.386639603E1
3.540177136E0,-1.435693540E-2,-6.747759581E-1,6.154339790E0,6.191237919E0
3.542552761E0,-4.115654826E-1,-1.507478237E0,1.354816151E1,1.363798215E1
3.544928386E0,1.392622828E0,-1.172483087E0,7.087540627E0,7.317605282E0
3.547303959E0,-1.785045743E0,-8.757730722E-1,1.152861977E1,1.169882218E1
3.549679584E0,2.325823545E0,-1.540977836E0,8.968298912E0,9.392254960E0
3.552055209E0,-2.110469580E0,-3.828516304E-1,9.638289452E0,9.874071135E0
3.554430834E0,2.311466694E0,-2.163111687E0,1.146640587E1,1.189539381E1
3.556806459E0,-1.976471543E0,-4.785645381E-2,7.322037220E0,7.584257317E0
3.559182032E0,7.561319470E-1,-2.043470621E0,1.352901936E1,1.370335260E1
3.561557657E0,-2.009970993E-1,-7.226324677E-1,6.331408501E0,6.375682796E0
3.563933282E0,-4.689932466E-1,-1.435693622E0,1.339023590E1,1.347514706E1
3.566308907E0,1.024128079E0,-1.110269666E0,6.685546398E0,6.854054836E0
3.568684480E0,-1.808973908E0,-9.044869542E-1,1.183490086E1,1.200647165E1
3.571060105E0,2.344966173E0,-1.603191137E0,8.676374435E0,9.129543336E0
3.573435730E0,-2.153540373E0,-2.967100143E-1,1.002114105E1,1.025422064E1
3.575811355E0,2.124826431E0,-2.115255117E0,1.111226845E1,1.150963517E1
3.578186928E0,-2.244467735E0,9.571290575E-3,7.551748276E0,7.878237686E0
3.580562553E0,9.810572863E-1,-2.076970100E0,1.350509071E1,1.369904206E1
3.582938178E0,-3.493520916E-1,-5.982056856E-1,6.211767673E0,6.250276358E0
3.585313803E0,-5.551348329E-1,-1.421336651E0,1.330409431E1,1.339131428E1
3.587689376E0,9.379864931E-1,-1.024128079E0,6.431907177E0,6.580128184E0
3.590065001E0,-1.722832322E0,-9.475577474E-1,1.212203979E1,1.228046683E1
3.592440626E0,2.445464849E0,-1.507478237E0,8.642875671E0,9.107803733E0
3.594816251E0,-2.416750908E0,-2.823530734E-1,1.015035343E1,1.043791564E1
3.597191823E0,2.129612207E0,-1.919043779E0,1.101177025E1,1.137879876E1
3.599567448E0,-2.182254314E0,-1.674975902E-1,7.690532207E0,7.995909890E0
3.601943073E0,1.359123230E0,-2.038684845E0,1.353859043E1,1.375852037E1
3.604318698E0,-4.833501875E-1,-6.412764788E-1,5.996413708E0,6.049945477E0
3.606694271E0,-4.115654826E-1,-1.373480201E0,1.340937805E1,1.348581676E1
3.609069896E0,1.019342422E0,-1.134197950E0,6.254838467E0,6.438048478E0
3.611445521E0,-1.392622828E0,-1.172483087E0,1.259581852E1,1.272669474E1
3.613821146E0,2.569891453E0,-1.450050473E0,8.518448830E0,9.015040705E0
3.616196771E0,-2.560320139E0,-4.594219327E-1,1.026520920E1,1.058965663E1
3.618572344E0,2.325823545E0,-2.019542217E0,1.102612686E1,1.144829592E1
3.620947969E0,-1.852044702E0,-4.307080805E-1,7.805387497E0,8.033657511E0
3.623323594E0,1.651047587E0,-2.124826431E0,1.345723438E1,1.372362936E1
3.625699219E0,-6.173482537E-1,-7.130611539E-1,5.886343479E0,5.961427231E0
3.628074792E0,-1.962114573E-1,-1.607976794E0,1.337587833E1,1.347361160E1
3.630450417E0,1.239482164E0,-1.220339537E0,6.307480335E0,6.542923872E0
3.632826042E0,-1.229910851E0,-1.296909928E0,1.291167068E1,1.303479558E1
3.635201667E0,2.335394859E0,-1.507478237E0,8.317451477E0,8.769638468E0
3.637577240E0,-2.536391973E0,-4.546363056E-1,1.060020447E1,1.090890981E1
3.639952865E0,2.354537487E0,-2.057827473E0,1.091605663E1,1.135512189E1
3.642328490E0,-1.832902193E0,-5.072783828E-1,7.982456207E0,8.205880142E0
3.644704115E0,1.660618901E0,-2.124826431E0,1.309352589E1,1.336835677E1
3.647079688E0,-8.949156404E-1,-5.647061467E-1,5.871986866E0,5.966573287E0
3.649455313E0,-1.531406492E-1,-1.665404558E0,1.360080433E1,1.370324424E1
3.651830938E0,1.167697430E0,-1.158126116E0,6.211767673E0,6.425794193E0
3.654206563E0,-1.459621787E0,-1.138983607E0,1.301216984E1,1.314322424E1
3.656582188E0,2.120040894E0,-1.363908887E0,8.221738815E0,8.599523823E0
3.658957761E0,-2.531606436E0,-5.694918036E-1,1.054756260E1,1.086206375E1
3.661333386E0,2.359323025E0,-1.899901152E0,1.091127110E1,1.132395101E1
3.663709011E0,-2.057827473E0,-3.684946895E-1,7.929814339E0,8.200755922E0
3.666084584E0,1.593619823E0,-2.029113531E0,1.282552910E1,1.308247387E1
3.668460209E0,-9.619147182E-1,-4.402793646E-1,5.924628735E0,6.018334611E0
3.670835834E0,4.785645287E-3,-1.641476393E0,1.380658627E1,1.390382293E1
3.673211459E0,1.177268744E0,-9.044869542E-1,6.211767673E0,6.386714020E0
3.675587032E0,-1.622333765E0,-1.177268744E0,1.300738430E1,1.316092606E1
3.677962657E0,2.043470621E0,-1.162911773E0,8.183453560E0,8.514519842E0
3.680338230E0,-2.129612207E0,-7.561319470E-1,1.064806080E1,1.088522772E1
3.682713907E0,2.622533560E0,-1.770688772E0,1.083948612E1,1.129192102E1
3.685089532E0,-2.081755638E0,-3.445664644E-1,7.843672752E0,8.122538694E0
3.687465105E0,1.808973908E0,-1.947757602E0,1.265803146E1,1.293413727E1
3.689840730E0,-6.987041831E-1,-3.828516304E-1,6.049055576E0,6.101297917E0
3.692216355E0,4.881358147E-1,-1.785045743E0,1.395972729E1,1.408185538E1
3.694591980E0,1.086341500E0,-7.465606928E-1,6.077769279E0,6.219065053E0
3.696967553E0,-1.421336651E0,-1.196411371E0,1.298345566E1,1.311570505E1
3.699343178E0,2.139183521E0,-1.091127157E0,8.092526436E0,8.441306103E0
3.701718803E0,-1.631905079E0,-9.236295223E-1,1.082991505E1,1.099105389E1
3.704094428E0,2.708675146E0,-1.646261930E0,1.039920712E1,1.087155040E1
3.706470001E0,-2.076970100E0,-3.014956415E-1,8.006384850E0,8.276889680E0
3.708845626E0,2.096112728E0,-2.033899307E0,1.240917778E1,1.274825981E1
3.711221251E0,-5.694918036E-1,-4.115654826E-1,6.226124287E0,6.265646870E0
3.713596876E0,6.556333899E-1,-1.718046665E0,1.403629780E1,1.415624228E1
3.715972448E0,7.609176040E-1,-7.274180651E-1,5.891129494E0,5.984441440E0
3.718348073E0,-1.296909928E0,-1.244267821E0,1.307438278E1,1.319733545E1
3.720723698E0,2.139183521E0,-1.205982566E0,8.001599312E0,8.369951710E0
3.723099323E0,-1.555334687E0,-8.470591903E-1,1.099262714E1,1.113438040E1
3.725474948E0,2.459821701E0,-1.607976794E0,9.844072342E0,1.027336714E1
3.727850521E0,-2.191825628E0,-2.249253243E-1,8.245666504E0,8.534969659E0
3.730226146E0,2.172683001E0,-2.191825628E0,1.222732353E1,1.261079267E1
3.732601771E0,-7.082754970E-1,-2.392822653E-1,6.623332977E0,6.665391955E0
3.734977396E0,3.972085714E-1,-1.861616015E0,1.375394440E1,1.388504142E1
3.737352969E0,3.637090325E-1,-5.742774606E-1,6.116054535E0,6.153714483E0
3.739728594E0,-1.205982566E0,-1.397408366E0,1.299781227E1,1.312822410E1
3.742104219E0,1.952543259E0,-1.162911773E0,8.082955360E0,8.396365662E0
3.744479844E0,-1.746760488E0,-9.092726111E-1,1.086341476E1,1.104045874E1
3.746855417E0,2.230110645E0,-1.536192179E0,9.652647018E0,1.002531168E1
3.749231042E0,-2.277967215E0,-2.536391914E-1,8.508877754E0,8.812177263E0
3.751606667E0,2.148754835E0,-2.277967215E0,1.198804188E1,1.239029580E1
3.753982292E0,-1.153340459E0,-6.699903309E-2,6.848258495E0,6.945021778E0
3.756357865E0,2.440679073E-1,-1.866401672E0,1.372044468E1,1.384895760E1
3.758733490E0,9.571290761E-2,-6.173482537E-1,6.096911907E0,6.128834688E0
3.761109115E0,-9.714859724E-1,-1.450050473E0,1.314616776E1,1.326152925E1
3.763484740E0,1.694118381E0,-1.081555843E0,7.704888821E0,7.962732688E0
3.765860313E0,-1.957328916E0,-8.853443861E-1,1.103091240E1,1.123814929E1
3.768235938E0,2.239681959E0,-1.555334687E0,9.332008362E0,9.722223065E0
3.770611563E0,-2.110469580E0,-2.871387303E-1,8.958727837E0,9.208438247E0
3.772987188E0,2.344966173E0,-2.177468538E0,1.190668583E1,1.232920934E1
3.775362761E0,-1.497906923E0,-9.092725813E-2,6.886543751E0,7.048154209E0
3.777738386E0,4.737788737E-1,-1.828116536E0,1.370608807E1,1.383558190E1
3.780114011E0,1.818545163E-1,-7.082754970E-1,6.149554253E0,6.192878390E0
3.782489636E0,-5.024927258E-1,-1.430907965E0,1.328495121E1,1.337123499E1
3.784865209E0,1.636690736E0,-1.182054400E0,7.188039303E0,7.466184982E0
3.787240834E0,-1.741974831E0,-8.183453679E-1,1.134676456E1,1.150883276E1
3.789616459E0,2.555534601E0,-1.660618901E0,9.083154678E0,9.580819962E0
3.791992084E0,-1.789831281E0,-3.684946895E-1,9.394221306E0,9.570301891E0
3.794367709E0,2.536391973E0,-2.206182480E0,1.172004509E1,1.219261999E1
3.796743282E0,-1.493121386E0,-1.052841991E-1,7.144968510E0,7.300073372E0
3.799118907E0,9.236295223E-1,-1.995614052E0,1.375394440E1,1.392862353E1
3.801494532E0,4.354937077E-1,-8.614161611E-1,6.302694798E0,6.376178658E0
3.803870105E0,-1.244267747E-1,-1.483550072E0,1.339502144E1,1.347749985E1
3.806245730E0,1.785045743E0,-1.320838094E0,6.934400082E0,7.281270910E0
3.808621355E0,-1.450050473E0,-8.901300430E-1,1.160997581E1,1.173398979E1
3.810996980E0,2.880958557E0,-1.770688772E0,9.030512810E0,9.642894925E0
3.813372605E0,-1.622333765E0,-3.206382394E-1,9.801001549E0,9.939537569E0
3.815748178E0,2.507678032E0,-2.306680918E0,1.154297638E1,1.203534502E1
3.818123803E0,-1.593619823E0,-1.100698411E-1,7.369893551E0,7.541025823E0
3.820499428E0,1.210768223E0,-2.206182480E0,1.371565914E1,1.394462285E1
3.822875053E0,2.775674164E-1,-7.944171429E-1,6.297909260E0,6.353880965E0
3.825250626E0,-3.732803464E-1,-1.454836130E0,1.328973675E1,1.337434070E1
3.827626251E0,1.440479279E0,-1.258624673E0,6.809973240E0,7.073531802E0
3.830001876E0,-1.646261930E0,-1.000199914E0,1.197846985E1,1.213236655E1
3.832377501E0,2.723032236E0,-1.698904037E0,9.083154678E0,9.633528865E0
3.834753073E0,-2.354537487E0,-3.541377485E-1,9.805787086E0,1.009072449E1
3.837128698E0,2.038684845E0,-2.096112728E0,1.153819084E1,1.190293125E1
3.839504323E0,-2.029113531E0,-2.536391914E-1,7.393822193E0,7.671391085E0
3.841879948E0,1.028913736E0,-2.081755638E0,1.384008598E1,1.403354374E1
3.844255521E0,-4.019941986E-1,-7.465606928E-1,6.001199245E0,6.060803956E0
3.846631146E0,-9.858429432E-1,-1.339980721E0,1.330409431E1,1.340769780E1
3.849006771E0,1.033699393E0,-1.148554921E0,6.623332977E0,6.801194937E0
3.851382396E0,-1.919043779E0,-1.048056364E0,1.221296692E1,1.240716374E1
3.853757969E0,2.230110645E0,-1.469193101E0,8.934800148E0,9.325372676E0
3.856133594E0,-2.967100143E0,-2.201396823E-1,9.896714211E0,1.033426809E1
3.858509219E0,1.708475351E0,-1.928615093E0,1.141854954E1,1.170562761E1
3.860884844E0,-2.206182480E0,-2.679961324E-1,7.456035137E0,7.780200706E0
3.863260417E0,8.709874153E-1,-1.914258122E0,1.362951756E1,1.379082130E1
3.865636042E0,-8.135597110E-1,-6.364908218E-1,5.790630817E0,5.882040907E0
3.868011667E0,-1.014556766E0,-1.229910851E0,1.337587833E1,1.347056522E1
3.870387240E0,1.129412293E0,-1.153340459E0,6.522834301E0,6.719608148E0
3.872762865E0,-1.765903115E0,-9.475577474E-1,1.252881908E1,1.268808840E1
3.875138490E0,2.215753794E0,-1.435693622E0,8.618947029E0,9.014268076E0
3.877514115E0,-2.842673302E0,-1.435693651E-1,9.954142570E0,1.035308447E1
3.879889740E0,2.081755638E0,-2.009970903E0,1.138983536E1,1.175168239E1
3.882265313E0,-1.651047587E0,-3.110669553E-1,7.441678524E0,7.628977654E0
3.884640938E0,1.272981644E0,-1.923829436E0,1.338544941E1,1.358277799E1
3.887016563E0,-4.833501875E-1,-5.503492355E-1,5.632704735E0,5.680129780E0
3.889392188E0,-3.924229145E-1,-1.330409408E0,1.339980698E1,1.347140720E1
3.891767761E0,1.761117458E0,-1.134197950E0,6.417550564E0,6.750769951E0
3.894143386E0,-1.450050473E0,-9.284151793E-1,1.253360462E1,1.265131795E1
3.896519011E0,2.608176708E0,-1.335195065E0,8.590232849E0,9.076201408E0
3.898894636E0,-2.354537487E0,-3.397808075E-1,9.834501266E0,1.011813782E1
3.901270261E0,2.603390932E0,-1.986042738E0,1.140419292E1,1.186497477E1
3.903645834E0,-1.397408366E0,-3.206382394E-1,7.355536938E0,7.493963081E0
3.906021459E0,1.560120344E0,-1.909472466E0,1.310309696E1,1.333308706E1
3.908397084E0,-1.531406492E-1,-6.125625968E-1,5.627918720E0,5.663228241E0
3.910772657E0,-1.052841991E-1,-1.512263894E0,1.353380489E1,1.361843977E1
3.913148282E0,1.856830359E0,-1.009771109E0,6.594619274E0,6.925060292E0
3.915523907E0,-1.708475351E0,-1.048056364E0,1.244746304E1,1.260780101E1
3.917899532E0,2.431107759E0,-1.282552958E0,8.800801277E0,9.220050442E0
3.920275105E0,-2.215753794E0,-5.216353536E-1,9.863214493E0,1.012248331E1
3.922650730E0,2.550748825E0,-1.923829436E0,1.144247818E1,1.188014083E1
3.925026355E0,-1.875972986E0,-3.302095234E-1,7.173682213E0,7.422265791E0
3.927401980E0,1.249053478E0,-1.837687731E0,1.306959724E1,1.325713404E1
3.929777605E0,-4.211367965E-1,-5.359922647E-1,5.742774487E0,5.783087645E0
3.932153178E0,-2.632105052E-1,-1.483550072E0,1.376830196E1,1.385049961E1
3.934528803E0,1.306481123E0,-9.092726111E-1,6.441478729E0,6.635233065E0
3.936904428E0,-2.134397745E0,-8.518448472E-1,1.245703506E1,1.266724185E1
