"Time (s)","Acceleration x (m/s^2)","Acceleration y (m/s^2)","Acceleration z (m/s^2)","Absolute acceleration (m/s^2)"
1.022276500E-2,-6.431907177E0,2.105683982E-1,8.958727837E0,1.103052915E1
1.259823400E-2,3.507878065E0,-3.828516304E-1,1.220818138E1,1.270792967E1
1.497370200E-2,-1.359123230E0,3.493520916E-1,7.958528042E0,8.081301345E0
1.734953600E-2,-1.799402595E0,-1.148554832E-1,1.121276665E1,1.135681194E1
1.972510900E-2,3.909872293E0,-2.392822653E-1,8.791230202E0,9.624452494E0
2.210063000E-2,-6.599404812E0,1.004985496E-1,9.351150513E0,1.144579660E1
2.447620200E-2,5.111069202E0,1.100698411E-1,1.204068375E1,1.308102476E1
2.685172300E-2,-3.105883837E0,6.939185858E-1,7.738388538E0,8.367239364E0
2.922729600E-2,-7.561319470E-1,-8.709874153E-1,1.126540947E1,1.132430153E1
3.160281700E-2,3.201596737E0,-2.153540403E-1,8.724231720E0,9.295634359E0
3.397833800E-2,-5.450850010E0,1.004985452E0,1.081077290E1,1.214885065E1
3.635391100E-2,5.101497650E0,-3.589234054E-1,1.001156998E1,1.124213670E1
3.872943200E-2,-4.340580463E0,1.722832322E-1,8.561519623E0,9.600517617E0
4.110500500E-2,8.231309652E-1,-2.105683982E-1,1.210768223E1,1.213745659E1
4.348052500E-2,1.952543259E0,7.657032460E-2,7.905886173E0,8.143790541E0
4.585609800E-2,-4.651647091E0,2.009970993E-1,1.074377346E1,1.170926508E1
4.823161900E-2,5.173282623E0,-3.349951804E-1,1.002114105E1,1.128265673E1
5.060719200E-2,-5.312066078E0,6.029912829E-1,8.752944946E0,1.025649500E1
5.298271300E-2,2.464607239E0,-2.488535494E-1,1.204068375E1,1.229285492E1
5.535828600E-2,5.934200287E-1,3.732803464E-1,7.987242222E0,8.017950103E0
5.773380700E-2,-3.469592810E0,2.057827413E-1,1.083948612E1,1.138309625E1
6.010938000E-2,4.910071850E0,-4.067798555E-1,9.255437851E0,1.048510397E1
6.248490000E-2,-5.986842155E0,4.019941986E-1,9.212367058E0,1.099416141E1
6.486047300E-2,4.445864677E0,-5.742774159E-2,1.236610699E1,1.314114199E1
6.723599400E-2,-1.483550072E0,7.274180651E-1,7.451249599E0,7.632245964E0
6.961156700E-2,-2.502892494E0,-8.901300430E-1,1.117926693E1,1.149055314E1
7.198708800E-2,4.886143684E0,-2.201396823E-1,9.303294182E0,1.051066811E1
7.436260900E-2,-5.642275810E0,1.349551916E0,1.011685371E1,1.166221659E1
7.673818200E-2,4.383651257E0,-8.279166222E-1,1.027956581E1,1.120586086E1
7.911370200E-2,-3.091526747E0,2.871387079E-2,8.666803360E0,9.201730413E0
8.148927500E-2,-5.264210105E-1,-5.742774159E-2,1.226560879E1,1.227703449E1
8.386479600E-2,3.665804386E0,3.349951655E-2,8.240880966E0,9.019499050E0
8.624036900E-2,-5.661418438E0,5.886343718E-1,1.026042366E1,1.173347531E1
8.861589000E-2,4.685146809E0,-7.752745152E-1,1.039920712E1,1.143219838E1
9.099146300E-2,-4.316651821E0,2.440679073E-1,8.642875671E0,9.663971852E0
9.336698400E-2,1.115055323E0,-2.967100143E-1,1.229432297E1,1.234835060E1
9.574250500E-2,2.249253273E0,4.546363056E-1,8.173882484E0,8.489887474E0
9.811807700E-2,-5.359922886E0,-4.594219327E-1,1.026999474E1,1.159364627E1
1.004936500E-1,5.000999451E0,-2.201396823E-1,1.027956581E1,1.143363154E1
1.028691710E-1,-5.412564754E0,5.072783828E-1,8.882157326E0,1.041373647E1
1.052447440E-1,2.971885681E0,-5.742774606E-1,1.209332561E1,1.246637171E1
1.076202650E-1,-2.871387303E-1,1.531406492E-1,7.982456207E0,7.989086794E0
1.099958380E-1,-4.383651257E0,-5.647061467E-1,1.110269737E1,1.195011215E1
1.123713070E-1,5.139782906E0,-1.483550072E-1,9.652647018E0,1.093677155E1
1.147469320E-1,-5.857629776E0,6.317051649E-1,9.533005714E0,1.120665320E1
1.171224520E-1,3.775874138E0,-3.637090325E-1,1.146640587E1,1.207758143E1
1.194979730E-1,-2.378465652E0,1.100698411E-1,7.700103283E0,8.059826598E0
1.218735460E-1,-2.880958557E0,-8.709874153E-1,1.147597694E1,1.186408817E1
1.242490670E-1,4.953142643E0,-3.158525825E-1,9.848857880E0,1.102875271E1
1.266246400E-1,-6.159125328E0,1.263410330E0,9.786644936E0,1.163225901E1
1.290001610E-1,3.699303865E0,-7.417750359E-1,1.023649502E1,1.090967046E1
1.313757340E-1,-3.656233072E0,-1.674975902E-1,8.690732002E0,9.430000979E0
1.337512550E-1,-6.221338734E-2,5.742774159E-2,1.250489140E1,1.250517802E1
1.361268270E-1,3.445664644E0,-1.914258115E-2,8.082955360E0,8.786759280E0
1.385023480E-1,-6.297909260E0,-4.498506486E-1,9.968499184E0,1.179987299E1
1.408779210E-1,5.005784988E0,-1.770688742E-1,1.110748291E1,1.218463842E1
1.432534420E-1,-4.589433670E0,9.236295223E-1,8.561519623E0,9.757848695E0
1.456289630E-1,1.392622828E0,-9.140582681E-1,1.163868904E1,1.175729490E1
1.480045360E-1,1.483550072E0,-2.632105052E-1,8.403593063E0,8.537597845E0
1.503801090E-1,-4.924428940E0,9.092725813E-2,1.117448139E1,1.221176902E1
1.527556300E-1,5.340780258E0,-2.967100143E-1,9.461220741E0,1.086860932E1
1.551312020E-1,-5.312066078E0,4.115654826E-1,9.394221306E0,1.079994565E1
1.575066710E-1,2.895315409E0,-7.322037220E-1,1.178225899E1,1.215485913E1
1.598822440E-1,-4.929214716E-1,1.292124242E-1,7.805387497E0,7.822003669E0
1.622578170E-1,-3.847658873E0,-2.009970993E-1,1.162911797E1,1.225076582E1
1.646333900E-1,5.613562107E0,-4.785645306E-1,9.403793335E0,1.096231876E1
1.670089110E-1,-5.862415314E0,5.886343718E-1,9.461220741E0,1.114581095E1
1.693844320E-1,3.584448338E0,-5.359922647E-1,1.130848026E1,1.187506983E1
1.717600050E-1,-2.335394859E0,6.699903309E-2,8.159524918E0,8.487426282E0
1.741355250E-1,-1.483550072E0,-4.307080805E-1,1.215075302E1,1.224856029E1
1.765110980E-1,4.723432064E0,-6.699903309E-2,8.901300430E0,1.007712502E1
1.788866190E-1,-6.321837425E0,5.359922647E-1,9.863214493E0,1.172757077E1
1.812621920E-1,4.297509670E0,-8.087740541E-1,1.054277611E1,1.141371249E1
1.836377130E-1,-3.795016766E0,-2.392822690E-2,9.035298347E0,9.799966379E0
1.860132860E-1,1.210768223E0,-1.100698411E-1,1.256231880E1,1.262101140E1
1.883888070E-1,2.124826431E0,2.488535494E-1,7.537391186E0,7.835118464E0
1.907643800E-1,-6.010770321E0,-6.939185858E-1,1.046142101E1,1.208520635E1
1.931399000E-1,5.733202934E0,-2.775674164E-1,1.087777138E1,1.229929143E1
1.955154730E-1,-4.599005222E0,9.619147182E-1,8.891729355E0,1.005678775E1
1.978909940E-1,1.603191137E0,-1.282552958E0,1.119362450E1,1.138035119E1
2.002665670E-1,3.110669553E-1,-2.536391914E-1,8.365307808E0,8.374931057E0
2.026420880E-1,-4.000799656E0,4.402793646E-1,1.188754272E1,1.255045481E1
2.050176090E-1,5.498706341E0,-4.211367965E-1,9.054440498E0,1.060169894E1
2.073931820E-1,-6.039484501E0,8.135596663E-2,9.346364975E0,1.112818629E1
2.097687020E-1,3.431307554E0,-3.541377485E-1,1.206461143E1,1.254807293E1
2.121442750E-1,-1.670190215E0,2.201396823E-1,7.676175117E0,7.858858776E0
2.145197960E-1,-2.301895380E0,-4.546363056E-1,1.155254745E1,1.178841674E1
2.168953690E-1,4.804787636E0,-4.163511395E-1,9.451649666E0,1.061098553E1
2.192708900E-1,-6.226124287E0,2.249253243E-1,9.556933403E0,1.140833867E1
2.216464630E-1,4.326223373E0,-1.627119333E-1,1.137069321E1,1.216697776E1
2.240219840E-1,-3.292523861E0,2.392822653E-1,8.274380684E0,8.908610727E0
2.263975570E-1,3.110669553E-1,-3.924229145E-1,1.195454216E1,1.196502556E1
2.287730770E-1,2.852244616E0,-1.866401732E-1,8.250452042E0,8.731557295E0
2.311486500E-1,-6.087340832E0,-1.148554832E-1,1.027956581E1,1.194731700E1
2.335241710E-1,5.503491879E0,-3.062812984E-1,1.090170002E1,1.221594427E1
2.358997440E-1,-4.264009953E0,1.048056364E0,8.930013657E0,9.951148020E0
2.382752650E-1,1.210768223E0,-7.130611539E-1,1.127976608E1,1.136694941E1
2.406508380E-1,1.052842021E0,-1.579262912E-1,8.039883614E0,8.110064461E0
2.430263590E-1,-4.704289436E0,-3.828516230E-2,1.134197903E1,1.227893697E1
2.454018800E-1,6.063412666E0,-2.871387303E-1,9.714859962E0,1.145538851E1
2.477774520E-1,-5.881557941E0,8.614161611E-1,8.968298912E0,1.075942131E1
2.501529730E-1,2.498106956E0,-6.843472719E-1,1.146640587E1,1.175531085E1
2.525285460E-1,-1.000199914E0,7.178468257E-2,8.221738815E0,8.282665154E0
2.549040670E-1,-2.565105915E0,-5.264209956E-2,1.205025482E1,1.232035636E1
2.572796400E-1,5.178068161E0,1.674975902E-1,8.662017822E0,1.009311637E1
2.596551610E-1,-6.762116909E0,2.632105052E-1,9.174081802E0,1.139996850E1
2.620307340E-1,3.790230989E0,-3.254238665E-1,1.158604717E1,1.219459883E1
2.644062550E-1,-2.488535643E0,1.052841991E-1,8.346165657E0,8.709901009E0
2.667818270E-1,-6.652047038E-1,-2.297109663E-1,1.172483063E1,1.174593196E1
2.691573480E-1,3.259024382E0,-4.785645381E-2,8.489734650E0,9.093905904E0
2.715329210E-1,-6.570691109E0,3.828516230E-2,9.992427826E0,1.195926675E1
2.739084420E-1,5.125426292E0,-3.349951804E-1,1.112183952E1,1.225061349E1
2.762840150E-1,-3.795016766E0,9.332008362E-1,8.647661209E0,9.489734477E0
2.786595360E-1,3.014956415E-1,-6.843472719E-1,1.111705399E1,1.114217753E1
2.810351090E-1,1.708475351E0,-2.105683982E-1,8.202595711E0,8.381276959E0
2.834106300E-1,-5.245067120E0,3.349951655E-2,1.125105190E1,1.241362237E1
2.857861500E-1,5.991627693E0,-2.871387303E-1,9.834501266E0,1.151952543E1
2.881617230E-1,-5.584847927E0,7.034898400E-1,8.920442581E0,1.054797232E1
2.905372440E-1,1.957328916E0,-7.944171429E-1,1.157647610E1,1.176762652E1
2.929128170E-1,2.871387079E-2,-7.657032460E-2,8.216953278E0,8.217360201E0
2.952883380E-1,-3.192025423E0,-2.871387079E-2,1.194018459E1,1.235952503E1
2.976639110E-1,5.508277893E0,2.871387079E-2,8.824729919E0,1.040277886E1
3.000394320E-1,-6.489335060E0,2.679961324E-1,8.944371223E0,1.105373548E1
3.024150050E-1,3.507878065E0,-6.173482537E-1,1.186361504E1,1.238675458E1
3.047905250E-1,-1.311266780E0,-9.571290575E-3,8.346165657E0,8.448549778E0
3.071660980E-1,-1.411765337E0,-1.674975902E-1,1.160997581E1,1.169669506E1
3.095416190E-1,4.067798615E0,4.785645287E-3,8.618947029E0,9.530648266E0
3.119171400E-1,-6.589833736E0,9.571290761E-2,9.772287369E0,1.178697035E1
3.142927130E-1,5.359922886E0,-5.407779217E-1,1.155254745E1,1.274686498E1
3.166682860E-1,-2.971885681E0,8.470591903E-1,8.451449394E0,8.998700497E0
3.190438070E-1,-2.632105052E-1,-6.077769399E-1,1.116491032E1,1.118453821E1
3.214193270E-1,2.770888567E0,-2.967100143E-1,8.394021988E0,8.844516121E0
3.237949000E-1,-5.245067120E0,2.871387079E-2,1.106919765E1,1.224902814E1
3.261704730E-1,6.149554253E0,-2.584248483E-1,1.016949654E1,1.188707116E1
3.285459940E-1,-5.029713154E0,7.130611539E-1,8.623732567E0,1.000875787E1
3.309215150E-1,1.435693622E0,-8.087740541E-1,1.167218876E1,1.178793120E1
3.332970880E-1,1.177268744E0,-1.196411327E-1,8.293522835E0,8.377517335E0
3.356726090E-1,-3.483949661E0,3.254238665E-1,1.177747345E1,1.228628043E1
3.380481820E-1,5.479563713E0,-1.339980662E-1,8.839086533E0,1.040062617E1
3.404237020E-1,-6.178267956E0,2.344966233E-1,9.049654961E0,1.096002913E1
3.427992230E-1,3.460021496E0,-4.211367965E-1,1.209811115E1,1.259021042E1
3.451747960E-1,-5.312066078E-1,1.387837082E-1,8.044670105E0,8.063383811E0
3.475503690E-1,-2.435893536E0,-5.264209956E-2,1.136590767E1,1.162412172E1
3.499258900E-1,4.445864677E0,-2.153540403E-1,8.901300430E0,9.952147479E0
3.523014630E-1,-6.508477688E0,1.866401732E-1,9.566504478E0,1.157208384E1
3.546769840E-1,5.115854740E0,-3.924229145E-1,1.181575775E1,1.288169619E1
3.570525570E-1,-2.718246460E0,9.284151793E-1,8.164310455E0,8.654870523E0
3.594280770E-1,-1.426122308E0,-8.757730722E-1,1.100219822E1,1.112875415E1
3.618036500E-1,3.603590965E0,-2.153540403E-1,8.772088051E0,9.485872336E0
3.641791710E-1,-5.546562672E0,5.599204898E-1,1.081077290E1,1.216349781E1
3.665546920E-1,5.273781300E0,9.571290575E-3,9.901499748E0,1.121840265E1
3.689302650E-1,-4.838287354E0,3.876372576E-1,8.494520187E0,9.783463618E0
3.713057860E-1,4.259224236E-1,-6.125625968E-1,1.185404301E1,1.187749883E1
3.736813590E-1,2.019542217E0,9.571290575E-3,8.317451477E0,8.559126208E0
3.760568800E-1,-4.752145767E0,4.642075896E-1,1.124626637E1,1.221789201E1
3.784324520E-1,5.039284706E0,1.100698411E-1,9.308079720E0,1.058521865E1
3.808079730E-1,-6.159125328E0,4.259224236E-1,8.705088615E0,1.067215079E1
3.831835460E-1,2.531606436E0,-4.402793646E-1,1.209332561E1,1.236330868E1
3.855590670E-1,3.014956415E-1,1.962114573E-1,8.073383331E0,8.081393257E0
3.879346400E-1,-3.728017569E0,1.196411327E-1,1.093041420E1,1.154930230E1
3.903101610E-1,4.627718925E0,-2.727817893E-1,9.107083321E0,1.021905861E1
3.926857340E-1,-6.632904530E0,5.168496966E-1,9.509077072E0,1.160539111E1
3.950612550E-1,4.560719967E0,-2.153540403E-1,1.191147137E1,1.275655495E1
3.974368270E-1,-2.220539331E0,8.374879360E-1,7.690532207E0,8.048382856E0
3.998122960E-1,-2.493321180E0,-8.470591903E-1,1.118405342E1,1.148987427E1
4.021878690E-1,4.469792843E0,-2.201396823E-1,9.016156197E0,1.006571319E1
4.045633380E-1,-5.761917114E0,1.067198873E0,1.037049294E1,1.191157949E1
4.069389630E-1,4.570291042E0,-5.120640397E-1,9.958928108E0,1.096950404E1
4.093145360E-1,-4.015156269E0,7.178468257E-2,8.858229637E0,9.725989164E0
4.116900570E-1,1.292124242E-1,-1.818545163E-1,1.223210907E1,1.223414317E1
4.140656300E-1,3.072384357E0,-5.742774159E-2,7.968099594E0,8.540108590E0
4.164411500E-1,-5.335994720E0,3.924229145E-1,1.053799057E1,1.181846355E1
4.188167230E-1,5.115854740E0,-3.110669553E-1,1.000678444E1,1.124297413E1
4.211922440E-1,-5.125426292E0,2.488535494E-1,8.662017822E0,1.006789330E1
4.235678170E-1,2.244467735E0,-5.934200287E-1,1.217946720E1,1.239875817E1
4.259433380E-1,1.392622828E0,2.297109663E-1,8.207381248E0,8.327861216E0
4.283189110E-1,-4.302295208E0,1.339980662E-1,1.077248764E1,1.160061160E1
4.306944320E-1,5.101497650E0,-1.866401732E-1,9.370293617E0,1.067063800E1
4.330699520E-1,-5.886343479E0,1.435693651E-1,9.183652878E0,1.090913067E1
4.354455250E-1,4.220939159E0,-5.886343718E-1,1.223689461E1,1.295779331E1
4.378210460E-1,-1.009771109E0,3.206382394E-1,7.767102242E0,7.839025692E0
4.401966190E-1,-3.120240688E0,9.092725813E-2,1.126062298E1,1.168528132E1
4.425721400E-1,4.833501816E0,-6.843472719E-1,9.073583603E0,1.030344556E1
4.449477130E-1,-5.785845280E0,2.775674164E-1,9.954142570E0,1.151685737E1
4.473232340E-1,4.733003139E0,-3.780659735E-1,1.144726372E1,1.239290520E1
4.496988070E-1,-2.943171740E0,5.455635786E-1,7.881958008E0,8.431201667E0
4.520743270E-1,-1.746760488E0,-3.349951804E-1,1.163868904E1,1.177380468E1
4.544499000E-1,4.335794449E0,-5.455635786E-1,8.944371223E0,9.954824444E0
4.568254210E-1,-5.752345562E0,2.584248483E-1,1.023170948E1,1.174070448E1
4.592009940E-1,4.780859470E0,-2.057827413E-1,1.058106136E1,1.161283012E1
4.615765150E-1,-4.388436794E0,3.828516304E-1,8.365307808E0,9.454275625E0
4.639520880E-1,2.392822653E-1,-5.982056856E-1,1.208854008E1,1.210569731E1
4.663276090E-1,3.192025423E0,3.349951655E-2,8.537590981E0,9.114856459E0
4.687031300E-1,-5.757131100E0,-5.742774159E-2,1.017428207E1,1.169033242E1
4.710787020E-1,4.919643402E0,-1.435693651E-1,1.031785107E1,1.143160330E1
4.734542230E-1,-5.240281582E0,4.019941986E-1,8.786444664E0,1.023834753E1
4.758297960E-1,2.397608280E0,-4.259224236E-1,1.227517986E1,1.251439076E1
4.782053170E-1,6.747759581E-1,1.531406492E-1,7.872386456E0,7.902736435E0
4.805808900E-1,-5.010570526E0,-4.115654826E-1,1.084905815E1,1.195731015E1
4.829564110E-1,5.469992638E0,-2.632105052E-1,1.001156998E1,1.141146935E1
4.853318800E-1,-5.556134224E0,7.034898400E-1,9.499505997E0,1.102751738E1
4.877075050E-1,3.311666489E0,-2.823530734E-1,1.141376400E1,1.188784534E1
4.900830770E-1,-1.402194023E0,3.828516230E-2,7.776673794E0,7.902168634E0
4.924585980E-1,-3.641875982E0,-6.652047038E-1,1.135155106E1,1.193999453E1
4.948341710E-1,5.766702652E0,-2.392822653E-1,1.003071213E1,1.157269637E1
4.972096920E-1,-6.139982700E0,1.320838094E0,9.442078590E0,1.134005507E1
4.995852650E-1,3.455235958E0,-8.805587292E-1,1.039442158E1,1.098899627E1
5.019607860E-1,-2.871387243E0,-2.105683982E-1,8.685946465E0,9.150675917E0
5.043363070E-1,-7.274180651E-1,5.168496966E-1,1.238046455E1,1.241258125E1
5.067118800E-1,4.110869408E0,-5.024927258E-1,7.891529083E0,8.912237514E0
5.090874000E-1,-6.709474564E0,-2.392822653E-1,9.968499184E0,1.201853905E1
5.114629730E-1,5.034498692E0,3.206382394E-1,1.146640587E1,1.252706867E1
5.138384940E-1,-4.206582069E0,6.939185858E-1,7.953742504E0,9.024349036E0
5.162140670E-1,5.407779217E-1,-1.201196909E0,1.167218876E1,1.174628900E1
5.185895880E-1,2.450250387E0,-2.536391914E-1,8.705088615E0,9.046912601E0
5.209651610E-1,-5.412564754E0,7.609176040E-1,1.093998528E1,1.222939617E1
5.233406820E-1,4.943571568E0,-2.679961324E-1,9.255437851E0,1.049637326E1
5.257162550E-1,-4.953142643E0,3.349951655E-2,9.485149384E0,1.070059826E1
5.280917750E-1,2.507678032E0,-4.498506486E-1,1.214596748E1,1.241029173E1
5.304673480E-1,2.536391914E-1,2.871387303E-1,7.379465103E0,7.389403677E0
5.328428690E-1,-4.642076015E0,-1.866401732E-1,1.114098263E1,1.207084082E1
5.352183900E-1,5.862415314E0,-5.168496966E-1,1.004506969E1,1.164209913E1
5.375939630E-1,-5.704489231E0,5.503492355E-1,9.236295700E0,1.086983164E1
5.399695360E-1,3.278167009E0,-2.584248483E-1,1.144726372E1,1.191020608E1
5.423450570E-1,-1.976471543E0,7.657032460E-2,7.963313580E0,8.205282807E0
5.447205770E-1,-2.024327993E0,-4.211367965E-1,1.187797165E1,1.205659448E1
5.470961500E-1,5.077569485E0,-1.435693651E-1,9.001798630E0,1.033608739E1
5.494716710E-1,-6.403193474E0,2.249253243E-1,9.609575272E0,1.154969328E1
5.518472440E-1,4.259224415E0,-9.571290761E-2,1.111705399E1,1.190542074E1
5.542227650E-1,-3.340380430E0,2.632105052E-1,8.461020470E0,9.100345520E0
5.565983380E-1,1.818545163E-1,-4.450650215E-1,1.198804188E1,1.199767903E1
5.589738590E-1,2.876172781E0,-1.244267747E-1,8.283951759E0,8.769932077E0
5.613493800E-1,-6.149554253E0,3.349951655E-2,1.038963604E1,1.207322147E1
5.637249520E-1,5.532206059E0,-4.211367965E-1,1.051406288E1,1.188815286E1
5.661005250E-1,-4.584648132E0,6.556333899E-1,9.097511292E0,1.020850456E1
5.684760460E-1,1.732403636E0,-2.871387303E-1,1.166740322E1,1.179881218E1
5.708516190E-1,5.599204898E-1,-1.387837082E-1,7.747959614E0,7.769404742E0
5.732271400E-1,-4.804787636E0,-5.934200287E-1,1.118405342E1,1.218692670E1
5.756026610E-1,6.350551128E0,-2.632105052E-1,1.038963604E1,1.217962711E1
5.779782340E-1,-5.843272686E0,1.234696507E0,9.078369141E0,1.086669671E1
5.803537550E-1,2.502892494E0,-8.231309652E-1,1.087777138E1,1.119231547E1
5.827293270E-1,-1.057627559E0,-3.972085714E-1,8.508877754E0,8.583551208E0
5.851048480E-1,-1.971685886E0,3.732803464E-1,1.222732353E1,1.239089683E1
5.874804210E-1,4.929214478E0,-2.392822653E-1,8.336593628E0,9.687786367E0
5.898559420E-1,-6.876972198E0,-2.871387079E-2,9.533005714E0,1.175464883E1
5.922315150E-1,4.426722050E0,-1.339980662E-1,1.171047401E1,1.251994510E1
5.946070360E-1,-2.502892494E0,6.891329288E-1,8.513663292E0,8.900665013E0
5.969826090E-1,-1.038485050E0,-9.714859724E-1,1.109791183E1,1.118864975E1
5.993581300E-1,3.397808075E0,-1.722832322E-1,8.791230202E0,9.426585261E0
6.017337020E-1,-6.116054535E0,4.354937077E-1,1.071027374E1,1.234122123E1
6.041092230E-1,5.431707382E0,-3.349951804E-1,9.949356079E0,1.134043003E1
6.064847440E-1,-4.622933388E0,6.843472719E-1,9.145368576E0,1.027022934E1
6.088603170E-1,9.475577474E-1,-9.475577474E-1,1.143290615E1,1.151117172E1
6.112358380E-1,1.440479279E0,1.435693540E-2,8.274380684E0,8.398842919E0
6.136114110E-1,-4.847858906E0,5.742774159E-2,1.146640587E1,1.244923682E1
6.159869320E-1,6.029912949E0,-9.571290761E-2,9.413364410E0,1.117946513E1
6.183625050E-1,-6.001199245E0,6.460621357E-1,9.035298347E0,1.086592863E1
6.207380250E-1,2.612962246E0,-8.805587292E-1,1.143769264E1,1.176536308E1
6.231135980E-1,-6.221339107E-1,-1.196411327E-1,8.441878319E0,8.465617175E0
6.254891190E-1,-2.450250387E0,2.967100143E-1,1.201675510E1,1.226760641E1
6.278646920E-1,5.020142078E0,-2.153540403E-1,8.528019905E0,9.898248701E0
6.302402130E-1,-6.642475605E0,-2.871387079E-2,9.494720459E0,1.158762371E1
6.326157860E-1,4.455435753E0,-3.158525825E-1,1.161476135E1,1.244400867E1
6.349913070E-1,-2.153540373E0,6.029912829E-1,8.480163574E0,8.770091725E0
6.373668270E-1,-1.191625714E0,-6.556333899E-1,1.109791183E1,1.118094245E1
6.397424000E-1,3.641875982E0,-2.871387303E-1,8.757730484E0,9.489128124E0
6.421179210E-1,-6.163911343E0,1.004985496E-1,1.046620655E1,1.214682603E1
6.444934940E-1,5.618347645E0,-4.450650215E-1,1.058106136E1,1.198844330E1
6.468690150E-1,-4.407579422E0,6.460621357E-1,8.843872070E0,9.902435349E0
6.492445880E-1,7.417750359E-1,-2.823530734E-1,1.156690502E1,1.159410390E1
6.516201090E-1,1.488335729E0,-2.392822653E-1,8.059026718E0,8.198799356E0
6.539956820E-1,-5.039284706E0,-4.785645306E-1,1.116012478E1,1.225446039E1
6.563712020E-1,6.015556335E0,-2.488535494E-1,1.017428207E1,1.182221899E1
6.587467750E-1,-5.972485542E0,1.115055323E0,8.915657043E0,1.078901629E1
6.611222960E-1,1.832902193E0,-3.972085714E-1,1.133240795E1,1.148654757E1
6.634978690E-1,-3.637090325E-1,-4.402793646E-1,8.312665939E0,8.332259309E0
6.658733900E-1,-3.072384357E0,-2.009970993E-1,1.183490086E1,1.222885210E1
6.682489110E-1,5.249852657E0,-8.614161611E-2,8.829515457E0,1.027271709E1
6.706244840E-1,-7.101897717E0,6.364908218E-1,9.336793900E0,1.174809738E1
6.729999520E-1,3.436093330E0,-6.556333899E-1,1.144726372E1,1.196981366E1
6.753755770E-1,-1.938186288E0,4.307080805E-2,8.824729919E0,9.035169026E0
6.777510980E-1,-1.588834286E0,-1.722832322E-1,1.168175983E1,1.179057203E1
6.801266710E-1,3.680161238E0,2.871387303E-1,8.063812256E0,8.868545737E0
6.825021920E-1,-6.972685337E0,1.674975902E-1,1.000678444E1,1.219762809E1
6.848777650E-1,5.139782906E0,-5.503492355E-1,1.104526901E1,1.219500800E1
6.872532860E-1,-3.943371773E0,4.115654826E-1,8.513663292E0,9.391593567E0
6.896288590E-1,2.871387079E-2,-3.732803464E-1,1.161954689E1,1.162557666E1
6.920043800E-1,1.899901152E0,-7.178468257E-2,8.231309891E0,8.448031720E0
6.943799520E-1,-5.393422127E0,1.052841991E-1,1.107398319E1,1.231800271E1
6.967554730E-1,5.690132141E0,-2.009970993E-1,9.944570541E0,1.145916606E1
6.991309940E-1,-5.436492920E0,4.929214716E-1,8.575876236E0,1.016582904E1
7.015065670E-1,1.459621787E0,-3.302095234E-1,1.189711380E1,1.199086531E1
7.038820880E-1,7.465606928E-1,-1.292124242E-1,8.078168869E0,8.113621941E0
7.062576610E-1,-3.742374659E0,7.657032460E-2,1.140419292E1,1.200278498E1
7.086331820E-1,5.388636589E0,-1.914258152E-1,9.231510162E0,1.069087592E1
7.110087550E-1,-6.441478729E0,3.206382394E-1,9.102297783E0,1.115559420E1
7.133842750E-1,3.531806231E0,-3.206382394E-1,1.203589821E1,1.254748221E1
7.157598480E-1,-7.896314859E-1,6.556333899E-1,8.231309891E0,8.295048857E0
7.181353690E-1,-2.512463808E0,-5.647061467E-1,1.085862923E1,1.115980269E1
7.205109420E-1,4.613361835E0,-2.344966233E-1,8.853444099E0,9.986068722E0
7.228864630E-1,-6.216553211E0,4.402793646E-1,1.023649502E1,1.198437358E1
7.252620360E-1,5.307280540E0,-2.201396823E-1,1.092562866E1,1.214845874E1
7.276375570E-1,-3.225524902E0,5.742774606E-1,8.370093346E0,8.988451931E0
7.300130770E-1,-7.178468108E-1,-5.120640397E-1,1.154297638E1,1.157660647E1
7.323886500E-1,3.440878868E0,-1.866401732E-1,8.322237015E0,9.007447522E0
7.347641710E-1,-5.283352375E0,3.732803464E-1,1.103091240E1,1.223659180E1
7.371397440E-1,5.824130535E0,-4.307080805E-2,9.887143135E0,1.147510135E1
7.395152650E-1,-5.082355499E0,7.082754970E-1,8.465806961E0,9.899589845E0
7.418908380E-1,1.158126116E0,-8.805587292E-1,1.155733299E1,1.164854436E1
7.442663590E-1,1.837687731E0,-1.387837082E-1,8.681160927E0,8.874621803E0
7.466419320E-1,-4.192225456E0,9.236295223E-1,1.139462185E1,1.217642201E1
7.490174520E-1,5.168497086E0,-5.790630579E-1,8.638090134E0,1.008292008E1
7.513930250E-1,-6.187839508E0,9.571290575E-3,9.332008362E0,1.119713488E1
7.537685460E-1,3.598805189E0,5.934200287E-1,1.256710434E1,1.308570432E1
7.561441190E-1,-5.359922647E-1,1.148554832E-1,7.369893551E0,7.390251040E0
7.585196400E-1,-3.507878065E0,-1.134197950E0,1.080120182E1,1.141304404E1
7.608951090E-1,5.125426292E0,3.062812984E-1,9.863214493E0,1.111965840E1
7.632707340E-1,-6.599404812E0,1.105484009E0,9.681360245E0,1.176872869E1
7.656462550E-1,4.407579422E0,-9.188438654E-1,1.071506023E1,1.162254474E1
7.680218270E-1,-2.646461725E0,-2.967100143E-1,8.628518105E0,9.030122988E0
7.703973480E-1,-1.287338614E0,9.762716293E-1,1.242353535E1,1.252815140E1
7.727729210E-1,3.397808075E0,-5.168496966E-1,7.341179848E0,8.105871630E0
7.751484420E-1,-6.063412666E0,-4.689932466E-1,1.053320503E1,1.216278488E1
7.775240150E-1,5.412564754E0,3.254238665E-1,1.138504982E1,1.261035754E1
7.798995360E-1,-4.776073933E0,9.188438654E-1,7.771887779E0,9.168282059E0
7.822751090E-1,4.785645287E-3,-1.191625714E0,1.143769264E1,1.149960033E1
7.846506300E-1,2.163111687E0,-1.818545163E-1,9.121439934E0,9.376182043E0
7.870261500E-1,-4.527220249E0,9.379864931E-1,1.119362450E1,1.211085345E1
7.894017230E-1,4.589433670E0,-7.561319470E-1,8.470592499E0,9.663621175E0
7.917772440E-1,-6.283552170E0,9.571290575E-3,9.370293617E0,1.128208855E1
7.941528170E-1,3.388236761E0,5.407779217E-1,1.282074356E1,1.327192731E1
7.965283380E-1,-9.188438654E-1,2.057827413E-1,7.144968510E0,7.206746533E0
7.989039110E-1,-3.622733593E0,-1.344766378E0,1.108833981E1,1.174239647E1
8.012794320E-1,5.197210789E0,2.775674164E-1,9.671789169E0,1.098323948E1
8.036550050E-1,-6.613761902E0,9.858429432E-1,9.882357597E0,1.193208802E1
8.060305250E-1,4.144368649E0,-8.374879360E-1,1.026520920E1,1.110187810E1
8.084060980E-1,-3.096312523E0,-2.871387303E-1,8.757730484E0,9.293408585E0
8.107816190E-1,-6.795616150E-1,7.513462901E-1,1.260538960E1,1.264603385E1
8.131571920E-1,2.833101988E0,-1.818545163E-1,7.298109055E0,7.830832249E0
8.155327130E-1,-5.608776093E0,-8.997012973E-1,1.063370419E1,1.205584905E1
8.179082860E-1,5.479563713E0,2.727817893E-1,1.099741268E1,1.228995989E1
8.202838070E-1,-5.484349728E0,9.810572863E-1,8.279166222E0,9.979236377E0
8.226593270E-1,1.459621787E0,-1.272981644E0,1.140897846E1,1.157219804E1
8.250349000E-1,9.523434043E-1,-2.201396823E-1,8.973084450E0,9.026165519E0
8.274104210E-1,-3.436093330E0,7.417750359E-1,1.149990559E1,1.202517343E1
8.297859940E-1,4.646861553E0,-7.657032609E-1,8.025527000E0,9.305305337E0
8.321615150E-1,-6.484549522E0,-1.962114573E-1,9.915857315E0,1.184956150E1
8.345370880E-1,4.871787071E0,3.828516304E-1,1.241874981E1,1.334564466E1
8.369126090E-1,-2.340180635E0,4.354937077E-1,7.542177200E0,7.908889751E0
8.392881820E-1,-1.765903115E0,-1.316052437E0,1.118405342E1,1.139883585E1
8.416637020E-1,4.302295208E0,4.307080805E-2,9.346364975E0,1.028912714E1
8.440392230E-1,-5.522634506E0,7.513462901E-1,1.080120182E1,1.215442199E1
8.464147960E-1,4.996213913E0,-6.891329288E-1,9.265008926E0,1.054881264E1
8.487903690E-1,-4.532006264E0,-2.440679073E-1,9.126225471E0,1.019247964E1
8.511658900E-1,1.703689694E0,7.513462901E-1,1.275374508E1,1.288895238E1
8.535414110E-1,7.130611539E-1,-1.387837082E-1,7.063612461E0,7.100868829E0
8.559169840E-1,-3.852444410E0,-1.052842021E0,1.120798111E1,1.189826226E1
8.582925050E-1,5.699703693E0,-1.435693540E-2,9.992427826E0,1.150371428E1
8.606680770E-1,-6.197410583E0,1.239482164E0,9.437292099E0,1.135811147E1
8.630435980E-1,3.359523058E0,-9.954141974E-1,1.049491978E1,1.106438366E1
8.654191710E-1,-1.899901152E0,-3.876372576E-1,9.154939651E0,9.358034358E0
8.677946920E-1,-7.322037220E-1,8.135597110E-1,1.230867958E1,1.235724867E1
8.701702650E-1,2.991028309E0,-5.168496966E-1,7.164111137E0,7.780608739E0
8.725457860E-1,-6.135197163E0,-8.757730722E-1,1.080598736E1,1.245700548E1
8.749213070E-1,6.092126369E0,5.455635786E-1,1.111226845E1,1.268440591E1
8.772968800E-1,-5.139782906E0,8.614161611E-1,8.293522835E0,9.794995004E0
8.796724000E-1,1.081555843E0,-1.210768223E0,1.115533924E1,1.127285750E1
8.820479730E-1,4.594219327E-1,-3.349951655E-2,8.834300995E0,8.846302323E0
8.844234940E-1,-3.086741209E0,5.120640397E-1,1.182532978E1,1.223227719E1
8.867990670E-1,4.694717884E0,-3.589234054E-1,8.197810173E0,9.453744954E0
8.891745880E-1,-6.163911343E0,-5.934200287E-1,9.891928673E0,1.167031290E1
8.915501610E-1,4.244867325E0,7.322037220E-1,1.163390350E1,1.240575397E1
8.939256820E-1,-3.498306751E0,3.254238665E-1,7.867600918E0,8.616449096E0
8.963012550E-1,-1.674975902E-1,-9.954141974E-1,1.159561825E1,1.163947024E1
8.986767750E-1,2.579462767E0,-3.493520916E-1,8.752944946E0,9.131797210E0
9.010523480E-1,-5.067998409E0,9.188438654E-1,1.131805134E1,1.243491729E1
9.034278690E-1,5.000999451E0,-6.987041831E-1,8.427521706E0,9.824525695E0
9.058034420E-1,-5.364708424E0,-3.014956415E-1,9.877572060E0,1.124443978E1
9.081789630E-1,3.407379389E0,4.546363056E-1,1.219861031E1,1.267371381E1
9.105544840E-1,-1.880758643E0,4.019941986E-1,7.073183537E0,7.329991661E0
9.129300570E-1,-2.684746981E0,-1.158126116E0,1.160997581E1,1.197249602E1
9.153055770E-1,5.154139996E0,4.785645381E-2,9.576076508E0,1.087514095E1
9.176811500E-1,-5.450850010E0,6.269195080E-1,1.025085258E1,1.162689867E1
9.200566710E-1,4.043870449E0,-6.077769399E-1,9.188439369E0,1.005732067E1
9.224322440E-1,-4.776073933E0,-1.244267747E-1,9.265008926E0,1.042433473E1
9.248077650E-1,2.622533560E0,3.972085714E-1,1.288295746E1,1.315317641E1
9.271833380E-1,2.344966233E-1,2.536391914E-1,7.350750923E0,7.358862727E0
9.295588590E-1,-4.110869408E0,-1.004985452E0,1.097827053E1,1.176569874E1
9.319344320E-1,5.292923450E0,-5.264209956E-2,9.418149948E0,1.080367337E1
9.343099520E-1,-5.412564754E0,7.513462901E-1,1.038485050E1,1.173479861E1
9.366855250E-1,4.082155228E0,-4.642075896E-1,9.987641335E0,1.079965089E1
9.390610460E-1,-3.651447296E0,-3.493520916E-1,8.891729355E0,9.618625950E0
9.414365670E-1,5.312066078E-1,5.838487148E-1,1.257188988E1,1.259664538E1
9.438121400E-1,1.866401672E0,-2.297109663E-1,7.269395351E0,7.508683713E0
9.461876610E-1,-4.350151539E0,-8.901300430E-1,1.132762241E1,1.216680646E1
9.485632340E-1,5.455635548E0,-5.742774159E-2,9.777072906E0,1.119635708E1
9.509387550E-1,-5.862415314E0,1.210768223E0,9.360722542E0,1.111112053E1
9.533143270E-1,2.842673302E0,-8.566305041E-1,1.067677498E1,1.108188302E1
9.556898480E-1,-1.521835208E0,-2.440679073E-1,9.111868858E0,9.241304325E0
9.580654210E-1,-4.642075896E-1,3.445664644E-1,1.218903828E1,1.220274022E1
9.604409420E-1,2.517249346E0,4.307080805E-2,7.298109055E0,7.720155124E0
9.628164630E-1,-5.838487148E0,-7.896314859E-1,1.094477081E1,1.242978110E1
9.651920360E-1,6.197410583E0,2.249253243E-1,1.064327526E1,1.231818971E1
9.675675570E-1,-5.302495003E0,8.135597110E-1,8.609375954E0,1.014394829E1
9.699431300E-1,1.789831281E0,-7.992027402E-1,1.117448139E1,1.134509830E1
9.723186500E-1,-7.752745152E-1,-2.584248483E-1,8.537590981E0,8.576613185E0
9.746942230E-1,-1.780260086E0,6.364908218E-1,1.219382381E1,1.233952129E1
9.770697440E-1,4.182653904E0,-3.397808075E-1,7.786244869E0,8.845092076E0
9.794453170E-1,-5.838487148E0,-7.465606928E-1,1.025563812E1,1.182469443E1
9.818208380E-1,4.843072891E0,6.987041831E-1,1.083470058E1,1.188840945E1
9.841964110E-1,-4.421936035E0,6.317051649E-1,8.341380119E0,9.462092370E0
9.865719320E-1,1.435693622E0,-7.752745152E-1,1.153819084E1,1.165298737E1
9.889475050E-1,7.465606928E-1,-2.679961324E-1,8.303094864E0,8.340896781E0
9.913230250E-1,-3.354737282E0,6.412764788E-1,1.164347458E1,1.213408414E1
9.936985460E-1,4.608576298E0,-2.727817893E-1,8.188239098E0,9.400034304E0
9.960741190E-1,-5.761917114E0,-3.110669553E-1,1.020299530E1,1.172167072E1
9.984496400E-1,4.579862595E0,2.775674164E-1,1.102134132E1,1.193826410E1
1.000825213E0,-3.728017569E0,9.906286001E-1,8.111668587E0,8.982128215E0
1.003200734E0,-3.828516304E-1,-8.566305041E-1,1.154297638E1,1.158104895E1
1.005576307E0,2.689532757E0,-3.541377485E-1,8.786444664E0,9.195684305E0
1.007951827E0,-3.617947817E0,4.977070987E-1,1.114576817E1,1.172882802E1
1.010327400E0,4.063013077E0,-2.009970993E-1,8.159524918E0,9.117363762E0
1.012702921E0,-6.087340832E0,-1.866401732E-1,9.973284721E0,1.168575890E1
1.015078494E0,4.742574692E0,4.067798555E-1,1.194497108E1,1.285845320E1
1.017454015E0,-2.502892494E0,5.216353536E-1,7.460821152E0,7.886724703E0
1.019829536E0,-1.517049551E0,-1.038485050E0,1.138504982E1,1.153253008E1
1.022205109E0,3.345165968E0,1.339980662E-1,8.633303642E0,9.259698840E0
1.024580630E0,-4.522434711E0,3.924229145E-1,1.129412270E1,1.217224790E1
1.026956202E0,4.967499733E0,-4.211367965E-1,8.705088615E0,1.003154911E1
1.029331723E0,-5.484349728E0,-2.249253243E-1,9.470791817E0,1.094644148E1
1.031707296E0,3.072384357E0,6.029912829E-1,1.224168110E1,1.263573901E1
1.034082817E0,-1.526620865E0,1.962114573E-1,7.393822193E0,7.552329232E0
1.036458390E0,-1.727617979E0,-1.043270707E0,1.162911797E1,1.180294295E1
1.038833911E0,3.895515203E0,-1.914258152E-1,8.848658562E0,9.670079673E0
1.041209432E0,-5.321637630E0,7.561319470E-1,1.078205872E1,1.204758701E1
1.043585005E0,4.378865242E0,-5.264210105E-1,9.150154114E0,1.015760307E1
1.045960525E0,-4.814359188E0,-1.196411327E-1,9.619147301E0,1.075733997E1
1.048336098E0,2.593819857E0,-2.871387079E-2,1.196889877E1,1.224676544E1
1.050711619E0,-8.374879360E-1,5.407779217E-1,7.733603001E0,7.797592075E0
1.053087192E0,-3.321237803E0,-8.470591903E-1,1.127498055E1,1.178445230E1
1.055462713E0,5.115854740E0,-5.072783828E-1,9.379864693E0,1.069631538E1
1.057838286E0,-5.154139996E0,1.435693540E-2,1.029870892E1,1.151645651E1
1.060213807E0,3.823730469E0,3.493520916E-1,9.882357597E0,1.060207306E1
1.062589380E0,-4.967499733E0,2.871387303E-1,8.681160927E0,1.000605103E1
1.064964900E0,1.933400750E0,-8.997012973E-1,1.210768223E1,1.229404205E1
1.067340473E0,1.004985452E0,9.571290575E-3,8.446663857E0,8.506245804E0
1.069715994E0,-4.110869408E0,-2.297109663E-1,1.125105190E1,1.198074219E1
1.072091515E0,4.685146809E0,-4.785645381E-2,8.657232285E0,9.843808292E0
1.074467088E0,-5.776273727E0,-2.727817893E-1,1.007378292E1,1.161554348E1
1.076842609E0,4.469792843E0,-2.584248483E-1,1.119362450E1,1.205583099E1
1.079218182E0,-3.349951744E0,5.455635786E-1,8.350951195E0,9.014333151E0
1.081593702E0,-8.231309652E-1,-3.589234054E-1,1.169133186E1,1.172576698E1
1.083969275E0,2.900100946E0,-5.312066078E-1,8.379665375E0,8.883217759E0
1.086344796E0,-4.225724697E0,-3.014956415E-1,1.145204926E1,1.221053156E1
1.088720317E0,5.015356064E0,1.244267747E-1,9.245866776E0,1.051928376E1
1.091095890E0,-6.288337708E0,4.354937077E-1,9.083154678E0,1.105606371E1
1.093471463E0,3.192025423E0,-6.652047038E-1,1.168654537E1,1.213288368E1
1.095846984E0,-6.364908218E-1,-4.307080805E-2,8.915657043E0,8.938451554E0
1.098222557E0,-2.005185366E0,-3.254238665E-1,1.166261768E1,1.183821440E1
1.100598077E0,3.972085476E0,1.100698411E-1,8.049455643E0,8.976820960E0
1.102973598E0,-6.163911343E0,-3.684946895E-1,1.046142101E1,1.214787722E1
1.105349171E0,5.819344521E0,-3.158525825E-1,1.094477081E1,1.239969926E1
1.107724692E0,-4.345366001E0,5.024927258E-1,8.695517540E0,9.733793192E0
1.110100265E0,7.465606928E-1,-1.148554832E-1,1.180618668E1,1.183032495E1
1.112475786E0,1.071984529E0,-3.206382394E-1,8.015955925E0,8.093670929E0
1.114851359E0,-3.550948858E0,-6.795616150E-1,1.169611740E1,1.224214867E1
1.117226880E0,5.670989513E0,-1.339980662E-1,9.432506561E0,1.100682777E1
1.119602400E0,-6.412764549E0,5.407779217E-1,9.394221306E0,1.138715873E1
1.121977973E0,3.302095175E0,-2.967100143E-1,1.106919765E1,1.155504245E1
1.124353494E0,-1.871187329E0,-3.828516304E-1,8.886942863E0,9.089866382E0
1.126729067E0,-8.566305041E-1,-4.211367965E-1,1.209811115E1,1.213571034E1
1.129104588E0,3.527020693E0,1.387837082E-1,7.992027760E0,8.736798246E0
1.131480161E0,-6.570691109E0,8.614161611E-2,1.057149029E1,1.244740169E1
1.133855682E0,5.331208706E0,-6.508477330E-1,1.020778179E1,1.153447867E1
1.136231255E0,-4.450650215E0,2.727817893E-1,9.288937569E0,1.030374002E1
1.138606775E0,1.210768223E0,-2.584248483E-1,1.194975662E1,1.201371826E1
1.140982348E0,3.158525825E-1,4.785645381E-2,7.714460373E0,7.721071942E0
1.143357869E0,-4.637290478E0,-7.465606928E-1,1.146162033E1,1.238670886E1
1.145733442E0,6.087340832E0,-3.349951804E-1,9.882357597E0,1.161158610E1
1.148108963E0,-6.417550564E0,4.881358147E-1,9.293723106E0,1.130471234E1
1.150484484E0,2.943171740E0,1.627119333E-1,1.111705399E1,1.150120100E1
1.152860057E0,-2.751745939E0,-2.249253243E-1,8.374878883E0,8.818236412E0
1.155235577E0,-1.268195987E0,-6.412764788E-1,1.200718403E1,1.209098941E1
1.157611150E0,4.082155228E0,-7.178468257E-2,8.480163574E0,9.411818028E0
1.159986671E0,-6.762116909E0,-4.785645287E-3,1.030827999E1,1.232829609E1
1.162362244E0,4.785645485E0,-1.435693651E-1,1.029392338E1,1.135287952E1
1.164737765E0,-4.426722050E0,2.392822653E-1,9.059226990E0,1.008576808E1
1.167113338E0,1.191625714E0,-4.019941986E-1,1.189711380E1,1.196339784E1
1.169488859E0,1.138983607E0,1.196411327E-1,7.791030407E0,7.874754121E0
1.171864432E0,-5.355136871E0,-5.503492355E-1,1.104526901E1,1.228732447E1
1.174239952E0,6.154339790E0,-3.780659735E-1,9.844072342E0,1.161570456E1
1.176615421E0,-5.967699528E0,8.518448472E-1,9.422935486E0,1.118618749E1
1.178991046E0,2.775674343E0,-1.004985496E-1,1.111705399E1,1.145876771E1
1.181366567E0,-1.732403636E0,-3.254238665E-1,7.977670670E0,8.170088883E0
1.183742140E0,-2.407179594E0,-4.594219327E-1,1.187318611E1,1.212345374E1
1.186117661E0,5.584847927E0,-1.722832322E-1,8.958727837E0,1.055836220E1
1.188493234E0,-6.690331936E0,5.168496966E-1,9.676574707E0,1.177555829E1
1.190868755E0,4.082155228E0,-4.019941986E-1,1.044227791E1,1.121903554E1
1.193244327E0,-3.450450182E0,0.000000000E0,8.791230202E0,9.444116418E0
1.195619848E0,6.412764788E-1,-2.871387079E-2,1.244746304E1,1.246400401E1
1.197995369E0,2.833101988E0,3.445664644E-1,7.379465103E0,7.912123491E0
1.200370942E0,-6.245266914E0,-5.599204898E-1,1.041835022E1,1.215972414E1
1.202746463E0,6.010770321E0,-2.009970993E-1,1.047577763E1,1.207939057E1
1.205122036E0,-4.737788677E0,1.225125194E0,9.126225471E0,1.035546062E1
1.207497557E0,1.631905079E0,-1.134197950E0,1.086820030E1,1.104840699E1
1.209873130E0,5.551348329E-1,-1.435693651E-1,8.575876236E0,8.595024145E0
1.212248650E0,-3.799802303E0,3.445664644E-1,1.168654537E1,1.229359859E1
1.214624223E0,5.895915031E0,-2.105683982E-1,8.585447311E0,1.041710414E1
1.216999744E0,-6.283552170E0,4.785645287E-3,9.480362892E0,1.137366833E1
1.219375317E0,4.091726780E0,-1.292124242E-1,1.170090294E1,1.239637259E1
1.221750838E0,-2.081755638E0,3.014956415E-1,7.858029366E0,8.134693090E0
1.224126359E0,-1.823330879E0,-3.828516304E-1,1.160040379E1,1.174906289E1
1.226501932E0,4.867001057E0,-2.488535494E-1,8.886942863E0,1.013545168E1
1.228877452E0,-5.905486107E0,-1.148554832E-1,1.004506969E1,1.165295598E1
1.231253025E0,4.881358147E0,-4.785645287E-3,1.052841949E1,1.160496865E1
1.233628546E0,-4.268795490E0,2.632105052E-1,8.585447311E0,9.591756890E0
1.236004119E0,1.225125194E0,-4.546363056E-1,1.198804188E1,1.205905361E1
1.238379640E0,2.062613010E0,-1.962114573E-1,8.121239662E0,8.381372502E0
1.240755213E0,-5.355136871E0,-3.972085714E-1,1.093519974E1,1.218252268E1
1.243130734E0,5.714060307E0,-3.684946895E-1,9.690931320E0,1.125612826E1
1.245506255E0,-5.513063431E0,5.647061467E-1,9.485149384E0,1.098548225E1
1.247881827E0,2.794816732E0,-2.632105052E-1,1.153819084E1,1.187476856E1
1.250257348E0,-9.762716293E-1,3.349951655E-2,7.795815945E0,7.856778905E0
1.252632921E0,-3.723232031E0,-8.566305041E-1,1.138983536E1,1.201351830E1
1.255008442E0,5.929414749E0,-4.259224236E-1,9.633503914E0,1.132006037E1
1.257384015E0,-6.412764549E0,7.561319470E-1,9.719645500E0,1.166905280E1
1.259759536E0,3.498306751E0,-7.657032460E-2,1.058106136E1,1.114463426E1
1.262135109E0,-3.450450182E0,-3.828516304E-1,8.504091263E0,9.185409628E0
1.264510630E0,-6.556333899E-1,-6.125625968E-1,1.220818138E1,1.224111027E1
1.266886202E0,3.967299938E0,-1.914258115E-2,8.221738815E0,9.128900503E0
1.269261723E0,-6.738188744E0,3.732803464E-1,1.029870892E1,1.231283603E1
1.271637244E0,4.546362877E0,-5.407779217E-1,9.982855797E0,1.098268028E1
1.274012817E0,-4.709074974E0,0.000000000E0,9.159725189E0,1.029931807E1
1.276388338E0,1.698904037E0,-2.297109663E-1,1.239003563E1,1.250807839E1
1.278763911E0,1.071984529E0,4.594219327E-1,7.570890903E0,7.660196369E0
1.281139432E0,-5.862415314E0,-5.647061467E-1,1.080598736E1,1.230675299E1
1.283515005E0,5.910272121E0,-5.359922647E-1,9.997213364E0,1.162595713E1
1.285890525E0,-5.584847927E0,6.939185858E-1,9.480362892E0,1.102494127E1
1.288266098E0,2.909672260E0,-6.699903309E-2,1.127976608E1,1.164919759E1
1.290641619E0,-1.502692580E0,1.818545163E-1,7.905886173E0,8.049483974E0
1.293017192E0,-3.416950703E0,-8.901300430E-1,1.130848026E1,1.184692405E1
1.295392713E0,6.005984783E0,-3.302095234E-1,9.786644936E0,1.148735438E1
1.297768286E0,-6.240481377E0,1.153340459E0,9.839286804E0,1.170834603E1
1.300143807E0,3.594019651E0,-5.120640397E-1,1.016471100E1,1.079354143E1
1.302519327E0,-3.024527788E0,-4.785645306E-1,8.834300995E0,9.349955423E0
1.304894900E0,1.052841991E-1,5.742774606E-1,1.271067429E1,1.272407640E1
1.307270421E0,3.751945972E0,-1.531406492E-1,7.484749317E0,8.373889358E0
1.309645994E0,-6.345765591E0,-8.901300430E-1,1.004506969E1,1.191488555E1
1.312021515E0,5.670989513E0,6.221339107E-1,1.119841003E1,1.256787810E1
1.314397088E0,-4.589433670E0,6.317051649E-1,8.350951195E0,9.549886841E0
1.316772609E0,1.718046665E0,-8.757730722E-1,1.143290615E1,1.159439545E1
1.319148182E0,1.531406522E0,-3.972085714E-1,8.456234932E0,8.602958201E0
1.321523702E0,-4.455435753E0,4.546363056E-1,1.153340530E1,1.237243064E1
1.323899223E0,5.766702652E0,-1.100698411E-1,8.934800148E0,1.063473688E1
1.326274796E0,-5.690132141E0,7.178468257E-2,9.303294182E0,1.090568840E1
1.328650317E0,3.617947817E0,-2.919243574E-1,1.187318611E1,1.241560770E1
1.331025890E0,-1.019342422E0,1.483550072E-1,7.848458290E0,7.915766906E0
1.333401411E0,-2.809173822E0,-3.876372576E-1,1.149512005E1,1.183974261E1
1.335776984E0,5.752345562E0,-3.493520916E-1,9.274580956E0,1.091922059E1
1.338152505E0,-5.929414749E0,3.972085714E-1,9.820143700E0,1.147828194E1
1.340528077E0,4.393222332E0,-1.483550072E-1,1.068634605E1,1.155510293E1
1.342903598E0,-3.488735437E0,1.627119333E-1,8.475378036E0,9.166776041E0
1.345279119E0,3.397808075E-1,-5.647061467E-1,1.201675510E1,1.203481397E1
1.347654692E0,3.488735437E0,1.244267747E-1,8.303094864E0,9.007116147E0
1.350030213E0,-5.977271080E0,3.062812984E-1,1.032742214E1,1.193638245E1
1.352405786E0,5.259424210E0,-5.024927258E-1,9.777072906E0,1.111328919E1
1.354781307E0,-4.627718925E0,1.722832322E-1,9.279366493E0,1.037073317E1
1.357156880E0,2.263610125E0,-3.349951804E-1,1.210289669E1,1.231731549E1
1.359532400E0,7.513462901E-1,3.110669553E-1,7.642675400E0,7.685816233E0
1.361907973E0,-5.063212872E0,-6.699903309E-2,1.103091240E1,1.213761269E1
1.364283494E0,6.159125328E0,-7.369893789E-1,9.662218094E0,1.148200491E1
1.366659067E0,-5.690132141E0,4.881358147E-1,9.432506561E0,1.102669762E1
1.369034588E0,3.158525944E0,-2.201396823E-1,1.151426220E1,1.194164903E1
1.371410109E0,-1.660618901E0,1.004985496E-1,7.824530125E0,7.999439153E0
1.373785682E0,-2.857030153E0,-5.790630579E-1,1.154297638E1,1.190538697E1
1.376161202E0,5.699703693E0,-3.158525825E-1,9.365508080E0,1.096809585E1
1.378536775E0,-6.407979012E0,5.886343718E-1,9.518648148E0,1.148970618E1
1.380912296E0,3.881158352E0,-2.632105052E-1,1.058584690E1,1.127797963E1
1.383287869E0,-3.230310678E0,-2.823530734E-1,8.681160927E0,9.266994409E0
1.385663390E0,-8.135596663E-2,-4.498506486E-1,1.228475189E1,1.229325479E1
1.388038963E0,3.684946775E0,4.307080805E-2,8.006384850E0,8.813789548E0
1.390414484E0,-6.546762943E0,2.919243574E-1,1.014078236E1,1.207397166E1
1.392790005E0,5.125426292E0,-7.609176040E-1,1.025085258E1,1.148603365E1
1.395165577E0,-4.153940201E0,1.292124242E-1,9.308079720E0,1.019373646E1
1.397541098E0,1.569691658E0,-4.163511395E-1,1.191147137E1,1.202166504E1
1.399916671E0,1.282552958E0,1.962114573E-1,7.704888821E0,7.813370128E0
1.402292192E0,-5.469992638E0,-3.684946895E-1,1.089691448E1,1.219833403E1
1.404667765E0,6.317051888E0,-7.226324677E-1,1.017906761E1,1.200169820E1
1.407043286E0,-5.335994720E0,5.455635786E-1,9.198010445E0,1.064771691E1
1.409418859E0,2.708675146E0,-3.493520916E-1,1.148076344E1,1.180113965E1
1.411794380E0,-7.752745152E-1,-2.919243574E-1,8.039883614E0,8.082450057E0
1.414169900E0,-3.053241730E0,-4.163511395E-1,1.161954689E1,1.202121056E1
1.416545473E0,6.168696880E0,-3.302095234E-1,9.360722542E0,1.121539059E1
1.418920994E0,-6.427121639E0,3.972085714E-1,9.298508644E0,1.131052299E1
1.421296567E0,3.847658873E0,-5.647061467E-1,1.115055370E1,1.180924298E1
1.423672088E0,-2.072184324E0,-3.254238665E-1,8.508877754E0,8.763609371E0
1.426047661E0,-7.465606928E-1,-2.536391914E-1,1.217468166E1,1.220018686E1
1.428423182E0,4.522434711E0,1.148554832E-1,8.231309891E0,9.392553967E0
1.430798755E0,-6.671189308E0,-3.541377485E-1,9.772287369E0,1.183755806E1
1.433174223E0,5.259424210E0,-5.934200287E-1,1.116012478E1,1.235160214E1
1.435549848E0,-2.866601467E0,6.891329288E-1,9.001798630E0,9.472311584E0
1.437925369E0,2.584248483E-1,-8.183453679E-1,1.141376400E1,1.144598101E1
1.440300890E0,2.636890650E0,-5.934200287E-1,8.288737297E0,8.718285704E0
1.442676463E0,-5.441278458E0,6.699903309E-2,1.112183952E1,1.238173310E1
1.445051984E0,6.321837425E0,-4.881358147E-1,1.004506969E1,1.187886064E1
1.447427557E0,-5.163711071E0,4.833501875E-1,8.944371223E0,1.033921254E1
1.449803077E0,1.875972986E0,-9.332008362E-1,1.171525955E1,1.190115309E1
1.452178650E0,9.044869542E-1,-3.828516304E-1,8.274380684E0,8.332469485E0
1.454554171E0,-3.704089403E0,1.435693651E-1,1.174397373E1,1.231510493E1
1.456929692E0,5.838487148E0,-4.019941986E-1,9.231510162E0,1.093024754E1
1.459305265E0,-6.278766632E0,-3.062812984E-1,8.977870941E0,1.095987615E1
1.461680786E0,3.622733593E0,-1.292124242E-1,1.236132145E1,1.288189282E1
1.464056359E0,-8.470591903E-1,2.057827413E-1,7.752745152E0,7.801596836E0
1.466431880E0,-2.646461725E0,-1.052842021E0,1.134197903E1,1.169413204E1
1.468807452E0,5.268995285E0,-7.178468108E-1,9.614361763E0,1.098697263E1
1.471182973E0,-6.216553211E0,1.201196909E0,1.009292603E1,1.191451063E1
1.473558546E0,4.244867325E0,-6.556333899E-1,1.044227791E1,1.129114351E1
1.475934067E0,-2.751745939E0,-6.221339107E-1,8.953942299E0,9.387877237E0
1.478309640E0,-2.153540403E-1,-2.297109663E-1,1.220339584E1,1.220745734E1
1.480685161E0,3.503092289E0,2.679961324E-1,7.771887779E0,8.529109987E0
1.483060682E0,-6.561119556E0,-6.652047038E-1,1.020299530E1,1.214874068E1
1.485436255E0,6.005984783E0,-6.843472719E-1,1.118405342E1,1.271311273E1
1.487811775E0,-4.244867325E0,1.148554921E0,8.853444099E0,9.885421055E0
1.490187348E0,5.503492355E-1,-8.997012973E-1,1.122712421E1,1.127655377E1
1.492562869E0,1.507478237E0,-7.944171429E-1,8.499305725E0,8.668436251E0
1.494938442E0,-3.914657831E0,8.374879360E-1,1.200718403E1,1.265695067E1
1.497313963E0,5.623133183E0,-7.704889178E-1,8.652446747E0,1.034785556E1
1.499689536E0,-6.331408501E0,-2.584248483E-1,9.193224907E0,1.116552288E1
1.502065057E0,3.445664644E0,4.402793646E-1,1.260060406E1,1.307064166E1
1.504440630E0,-8.949156404E-1,-8.135596663E-2,7.302894592E0,7.357972698E0
1.506816150E0,-2.675175667E0,-1.048056364E0,1.164826107E1,1.199737359E1
1.509191671E0,5.187639713E0,-3.780659735E-1,9.236295700E0,1.060017443E1
1.511567244E0,-6.283552170E0,1.316052437E0,1.015513897E1,1.201423611E1
1.513942765E0,4.364508629E0,-9.714859724E-1,1.022213840E1,1.115727718E1
1.516318338E0,-3.091526747E0,-3.349951804E-1,8.934800148E0,9.460465796E0
1.518693859E0,4.929214716E-1,1.579262912E-1,1.222253799E1,1.223349285E1
1.521069432E0,2.344966173E0,2.153540403E-1,7.398607731E0,7.764318391E0
1.523444952E0,-5.752345562E0,-8.805587292E-1,1.072463131E1,1.220174495E1
1.525820473E0,6.393621922E0,-1.483550072E-1,1.070548820E1,1.247028020E1
1.528196046E0,-5.168497086E0,1.091127157E0,8.800801277E0,1.026440567E1
1.530571567E0,1.708475351E0,-9.858429432E-1,1.122712421E1,1.139908297E1
1.532947140E0,-3.397808075E-1,-4.594219327E-1,8.465806961E0,8.485069653E0
1.535322661E0,-2.268395901E0,6.652047038E-1,1.215553856E1,1.238326431E1
1.537698234E0,4.890929699E0,-6.412764788E-1,8.001599312E0,9.399894701E0
1.540073755E0,-6.618547440E0,-4.067798555E-1,9.805787086E0,1.183740261E1
1.542449327E0,4.508078098E0,1.435693651E-1,1.149033451E1,1.234387166E1
1.544824848E0,-2.995813847E0,4.833501875E-1,8.456234932E0,8.984232701E0
1.547200421E0,-4.546363056E-1,-1.004985452E0,1.160997581E1,1.166225657E1
1.549575942E0,2.761317253E0,-6.173482537E-1,8.394021988E0,8.858080885E0
1.551951463E0,-5.130211830E0,8.853443861E-1,1.128455162E1,1.242755058E1
1.554327036E0,5.316852093E0,-8.662018180E-1,9.131011009E0,1.060163119E1
1.556702557E0,-5.584847927E0,-3.493520916E-1,9.312865257E0,1.086471502E1
1.559078077E0,3.081955671E0,1.962114573E-1,1.247617722E1,1.285270196E1
1.561453650E0,-1.167697430E0,6.699903309E-2,7.159325123E0,7.254236167E0
1.563829223E0,-3.144168854E0,-1.249053478E0,1.175833035E1,1.223536942E1
1.566204744E0,5.527420521E0,-4.450650215E-1,9.566504478E0,1.105750733E1
1.568580265E0,-5.785845280E0,9.332008362E-1,1.011685371E1,1.169177482E1
1.570955838E0,3.814159393E0,-9.571290612E-1,9.777072906E0,1.053826658E1
1.573331359E0,-4.082155228E0,-4.881358147E-1,8.997013092E0,9.891840701E0
1.575706932E0,1.756331801E0,4.977070987E-1,1.277288723E1,1.290267654E1
1.578082452E0,1.220339537E0,-5.072783828E-1,7.183253765E0,7.303813702E0
1.580458025E0,-4.938786030E0,-9.954141974E-1,1.127498055E1,1.234939849E1
1.582833546E0,5.728417397E0,1.483550072E-1,1.003549862E1,1.155629731E1
1.585209119E0,-5.666203976E0,5.742774606E-1,9.293723106E0,1.089995189E1
1.587584640E0,3.330809116E0,-7.896314859E-1,1.105962658E1,1.157726856E1
1.589960213E0,-2.163111687E0,-5.455635786E-1,8.398807526E0,8.690032200E0
1.592335734E0,-1.229910851E0,6.317051649E-1,1.237089348E1,1.244792101E1
1.594711255E0,3.546163082E0,-4.689932466E-1,7.867600918E0,8.642590553E0
1.597086827E0,-5.536991596E0,-7.992027402E-1,1.059063339E1,1.197741694E1
1.599462348E0,5.264209747E0,1.435693651E-1,1.040399265E1,1.166085672E1
1.601837921E0,-5.331208706E0,1.143769264E0,8.786444664E0,1.034077387E1
1.604213442E0,1.933400750E0,-7.848458290E-1,1.146162033E1,1.165001125E1
1.606589015E0,3.828516230E-2,-4.450650215E-1,8.585447311E0,8.597060786E0
1.608964536E0,-2.182254314E0,4.833501875E-1,1.167218876E1,1.188426909E1
1.611340109E0,3.785445452E0,9.092725813E-2,7.733603001E0,8.610835059E0
1.613715630E0,-6.135197163E0,-5.407779217E-1,1.038485050E1,1.207386454E1
1.616091202E0,5.623133183E0,4.450650215E-1,1.125105190E1,1.258586026E1
1.618466723E0,-4.120440483E0,7.752745152E-1,7.905886173E0,8.948861186E0
1.620842244E0,2.105683982E-1,-6.652047038E-1,1.173440266E1,1.175512833E1
1.623217817E0,1.517049551E0,-3.349951804E-1,8.446663857E0,8.588352078E0
1.625593338E0,-3.048455954E0,7.944171429E-1,1.177747345E1,1.219151603E1
1.627968911E0,4.790431023E0,-3.445664644E-1,8.049455643E0,9.373403415E0
1.630344432E0,-6.120840549E0,-4.163511395E-1,9.781859398E0,1.154654973E1
1.632720005E0,4.436293125E0,8.327022791E-1,1.171047401E1,1.255027057E1
1.635095525E0,-2.967100143E0,4.498506486E-1,7.858029366E0,8.411579779E0
1.637470734E0,-5.264209956E-2,-9.092726111E-1,1.162433243E1,1.165995936E1
1.639846567E0,2.440679073E0,-1.722832322E-1,8.456234932E0,8.803096335E0
1.642222140E0,-4.364508629E0,8.183453679E-1,1.127019501E1,1.211346029E1
1.644597713E0,5.264209747E0,-4.163511395E-1,8.858229637E0,1.031278259E1
1.646973234E0,-5.584847927E0,-3.637090325E-1,9.365508080E0,1.091034153E1
1.649348807E0,3.828516245E0,5.312066078E-1,1.203111267E1,1.263674757E1
1.651724327E0,-2.502892494E0,4.977070987E-1,7.613961697E0,8.030230128E0
1.654099848E0,-1.057627559E0,-9.284151793E-1,1.189711380E1,1.198006042E1
1.656475421E0,3.675375462E0,-5.072783828E-1,9.030512810E0,9.762985084E0
1.658850942E0,-4.206582069E0,7.896314859E-1,1.099741268E1,1.180092947E1
1.661226515E0,4.211368084E0,-5.647061467E-1,8.571090698E0,9.566509809E0
1.663602036E0,-5.532206059E0,-4.163511395E-1,9.619147301E0,1.110435261E1
1.665977609E0,4.326223373E0,5.072783828E-1,1.240439224E1,1.314695733E1
1.668353077E0,-2.210968018E0,1.004985496E-1,7.307680130E0,7.635487438E0
1.670728702E0,-1.909472466E0,-8.566305041E-1,1.179661560E1,1.198081969E1
1.673104223E0,3.637090445E0,-3.158525825E-1,8.709874153E0,9.444050906E0
1.675479796E0,-4.345366001E0,4.642075896E-1,1.122233772E1,1.204319552E1
1.677855317E0,4.450650215E0,-3.972085714E-1,8.973084450E0,1.002408632E1
1.680230838E0,-5.560919762E0,-4.689932466E-1,9.265008926E0,1.081592223E1
1.682606411E0,3.206382275E0,5.407779217E-1,1.223210907E1,1.265692776E1
1.684981932E0,-1.603191137E0,5.264209956E-2,7.685746193E0,7.851349410E0
1.687357505E0,-1.497906923E0,-9.762716293E-1,1.162911797E1,1.176576458E1
1.689733025E0,3.211168051E0,-2.871387303E-1,8.652446747E0,9.233573718E0
1.692108598E0,-4.867001057E0,7.369893789E-1,1.100698376E1,1.205755133E1
1.694484119E0,4.771288395E0,-5.264210105E-1,9.159725189E0,1.034131895E1
1.696859692E0,-5.302495003E0,-3.589234054E-1,9.298508644E0,1.071016070E1
1.699235213E0,3.172882795E0,3.158525825E-1,1.195932770E1,1.237709445E1
1.701610734E0,-2.043470621E0,5.168496966E-1,7.685746193E0,7.969542040E0
1.703986307E0,-1.579262972E0,-8.279166222E-1,1.166740322E1,1.180287318E1
1.706361827E0,3.675375462E0,-5.407779217E-1,9.001798630E0,9.738234137E0
1.708737400E0,-4.192225456E0,5.312066078E-1,1.072941685E1,1.153157928E1
1.711112921E0,3.751945972E0,-4.307080805E-2,8.786444664E0,9.554086220E0
1.713488494E0,-5.603990555E0,-4.594219327E-1,9.336793900E0,1.089915130E1
1.715864015E0,4.197010994E0,4.019941986E-1,1.237567902E1,1.307417040E1
1.718239588E0,-2.167897224E0,3.110669553E-1,7.412964344E0,7.729720654E0
1.720615109E0,-1.895115495E0,-6.317051649E-1,1.171525955E1,1.188435192E1
1.722990630E0,3.330809116E0,-3.972085714E-1,8.528019905E0,9.164015906E0
1.725366202E0,-3.823730469E0,6.699903607E-1,1.141376400E1,1.205586208E1
1.727741723E0,4.321437836E0,-5.168496966E-1,8.662017822E0,9.693941991E0
1.730117296E0,-5.584847927E0,-2.201396823E-1,9.403793335E0,1.093939290E1
1.732492817E0,3.617947817E0,5.742774606E-1,1.193539906E1,1.248491456E1
1.734868390E0,-1.871187329E0,2.632105052E-1,7.733603001E0,7.961107785E0
1.737243911E0,-7.034898400E-1,-8.757730722E-1,1.177268696E1,1.182615891E1
1.739619432E0,2.679961443E0,-1.962114573E-1,8.398807526E0,8.818200504E0
1.741995005E0,-4.015156269E0,5.503492355E-1,1.115055370E1,1.186419875E1
1.744370525E0,4.871787071E0,-3.828516304E-1,9.059226990E0,1.029322487E1
1.746746098E0,-5.235496044E0,-4.163511395E-1,9.509077072E0,1.086307111E1
1.749121619E0,3.938585997E0,8.135596663E-2,1.162911797E1,1.227825163E1
1.751497192E0,-2.689532757E0,6.604190469E-1,8.102097511E0,8.562343362E0
1.753872713E0,-3.732803464E-1,-6.412764788E-1,1.169611740E1,1.171963037E1
1.756248234E0,2.713460922E0,-8.805587292E-1,8.685946465E0,9.142424177E0
1.758623807E0,-3.101098061E0,1.866401732E-1,1.132762241E1,1.174592156E1
1.760999380E0,3.761517286E0,-2.344966233E-1,8.355736732E0,9.166369909E0
1.763374900E0,-5.714060307E0,7.178468257E-2,1.011685371E1,1.161922404E1
1.765750421E0,4.632504463E0,-4.259224236E-1,1.129890823E1,1.221911759E1
1.768125994E0,-2.933600664E0,2.775674164E-1,8.346165657E0,8.851075511E0
1.770501515E0,-6.364908218E-1,-2.919243574E-1,1.185404301E1,1.187470741E1
1.772877088E0,1.947757602E0,-4.307080805E-1,8.178668022E0,8.418425016E0
1.775252609E0,-3.656233072E0,-6.412764788E-1,1.147597694E1,1.206139804E1
1.777628182E0,4.814359188E0,-1.292124242E-1,9.422935486E0,1.058236568E1
1.780003650E0,-6.096911907E0,2.057827413E-1,9.164510727E0,1.100922060E1
1.782379275E0,3.239881754E0,-3.014956415E-1,1.135633659E1,1.181330243E1
1.784754796E0,-2.282752752E0,-2.057827413E-1,8.685946465E0,8.983260691E0
1.787130317E0,-3.254238665E-1,-5.455635786E-1,1.195454216E1,1.197140838E1
1.789505890E0,2.053041935E0,1.674975902E-1,8.130811691E0,8.387677592E0
1.791881411E0,-5.446064472E0,-5.886343718E-1,1.092562866E1,1.222192580E1
1.794256984E0,5.589633465E0,-6.221339107E-1,9.901499748E0,1.138730654E1
1.796632505E0,-5.302495003E0,4.689932466E-1,9.576076508E0,1.095616946E1
1.799008077E0,2.330609322E0,1.914258115E-2,1.120798111E1,1.144774855E1
1.801383598E0,-2.297109842E0,-3.589234054E-1,8.001599312E0,8.332534500E0
1.803759119E0,-1.378265858E0,-7.752745152E-1,1.201675510E1,1.212035769E1
1.806134692E0,4.024727821E0,1.866401732E-1,9.006584167E0,9.866702943E0
1.808510213E0,-5.747560024E0,-2.249253243E-1,1.012642574E1,1.164600944E1
1.810885786E0,4.412364960E0,-3.445664644E-1,9.757930756E0,1.071470500E1
1.813261307E0,-5.101497650E0,3.349951655E-2,9.293723106E0,1.060187199E1
1.815636880E0,2.641676188E0,-2.967100143E-1,1.214596748E1,1.243346356E1
1.818012400E0,-5.359922647E-1,2.632105052E-1,8.111668587E0,8.133617568E0
1.820387921E0,-3.632304668E0,-1.962114573E-1,1.127019501E1,1.184269529E1
1.822763494E0,4.910071850E0,-6.029912829E-1,8.518448830E0,9.850704265E0
1.825139015E0,-5.398207664E0,-7.178468257E-2,1.079162979E1,1.206669269E1
1.827514588E0,4.455435753E0,-6.699903309E-2,1.038485050E1,1.130046533E1
1.829890109E0,-4.450650215E0,5.886343718E-1,8.355736732E0,9.485415864E0
1.832265682E0,1.818545163E-1,-5.934200287E-1,1.194497108E1,1.196108493E1
1.834641202E0,2.574677229E0,-4.259224236E-1,8.508877754E0,8.900077156E0
1.837016775E0,-3.924229145E0,-2.632105052E-1,1.130369377E1,1.196838949E1
1.839392296E0,4.967499733E0,2.632105052E-1,8.810373306E0,1.011770780E1
1.841767817E0,-6.484549522E0,3.541377485E-1,9.241081238E0,1.129479431E1
1.844143390E0,4.244867325E0,-7.178468108E-1,1.169133186E1,1.245878980E1
1.846518911E0,-1.320838094E0,1.052841991E-1,8.681160927E0,8.781699896E0
1.848894484E0,-1.521835208E0,-1.866401732E-1,1.160040379E1,1.170128988E1
1.851270005E0,3.780659676E0,1.914258115E-2,8.015955925E0,8.862804489E0
1.853645577E0,-5.618347645E0,-3.780659735E-1,1.074377346E1,1.213002194E1
1.856021098E0,6.125626087E0,-3.302095234E-1,1.049491978E1,1.215630184E1
1.858396671E0,-4.785645485E0,4.689932466E-1,8.681160927E0,9.923956490E0
1.860772192E0,1.296909928E0,-1.292124242E-1,1.181097221E1,1.188266535E1
1.863147713E0,1.167697430E0,-5.647061467E-1,8.102097511E0,8.205266260E0
1.865523286E0,-3.105883837E0,-3.397808075E-1,1.182054424E1,1.222649711E1
1.867898807E0,5.747560024E0,-7.178468257E-2,8.953942299E0,1.064014483E1
1.870274380E0,-6.599404812E0,3.828516304E-1,9.154939651E0,1.129210517E1
1.872649900E0,4.067798615E0,-4.067798555E-1,1.154297638E1,1.224551996E1
1.875025473E0,-1.493121386E0,-1.627119333E-1,8.757730484E0,8.885591138E0
1.877400994E0,-1.009771109E0,-3.302095234E-1,1.164347458E1,1.169184230E1
1.879776567E0,3.732803345E0,0.000000000E0,8.063812256E0,8.885881437E0
1.882152088E0,-6.192625046E0,-2.775674164E-1,1.049970531E1,1.219300867E1
1.884527557E0,6.163911343E0,-6.317051649E-1,1.066720295E1,1.233620984E1
1.886903182E0,-4.326223373E0,4.881358147E-1,8.839086533E0,9.853118084E0
1.889278702E0,1.076770186E0,9.571290575E-3,1.163390350E1,1.168363113E1
1.891654275E0,8.662018180E-1,-4.689932466E-1,7.671389580E0,7.734369938E0
1.894029796E0,-3.881158352E0,-6.029912829E-1,1.157647610E1,1.222463854E1
1.896405369E0,6.364908218E0,-2.536391914E-1,9.643074989E0,1.155704481E1
1.898780890E0,-6.460621357E0,6.939185858E-1,8.925228119E0,1.103996596E1
1.901156411E0,2.933600664E0,-2.344966233E-1,1.117926693E1,1.156014752E1
1.903531984E0,-1.617548108E0,-4.402793646E-1,8.422736168E0,8.587944594E0
1.905907505E0,-1.143769264E0,-3.684946895E-1,1.209332561E1,1.215288118E1
1.908283077E0,4.311866283E0,4.307080805E-2,8.044670105E0,9.127472982E0
1.910658598E0,-6.953542709E0,3.924229145E-1,1.001635551E1,1.219971843E1
1.913034171E0,4.962714195E0,-4.354937077E-1,1.049970531E1,1.162161773E1
1.915409692E0,-3.742374659E0,2.297109663E-1,9.068798065E0,9.813319192E0
1.917785213E0,7.896314859E-1,-2.009970993E-1,1.174397373E1,1.177220611E1
1.920160786E0,1.526620865E0,-1.435693540E-2,7.551748276E0,7.704523308E0
1.922536307E0,-5.546562672E0,-2.679961324E-1,1.115055370E1,1.245676633E1
1.924911880E0,6.460621357E0,-3.397808075E-1,9.863214493E0,1.179568054E1
1.927287400E0,-5.867201328E0,6.795616150E-1,9.040083885E0,1.079856343E1
1.929662973E0,2.483749866E0,9.571290761E-2,1.131805134E1,1.158777202E1
1.932038494E0,-1.277767301E0,-4.498506486E-1,7.843672752E0,7.959790018E0
1.934414067E0,-2.507678032E0,-4.211367965E-1,1.189711380E1,1.216581777E1
1.936789536E0,5.618347645E0,-1.244267747E-1,9.083154678E0,1.068105852E1
1.939165109E0,-6.766902447E0,7.226324677E-1,9.437292099E0,1.163510415E1
1.941540682E0,3.952943087E0,-6.699903309E-2,1.069113159E1,1.139870794E1
1.943916202E0,-3.053241730E0,-4.115654826E-1,8.551948547E0,9.089966731E0
1.946291775E0,3.349951804E-1,-4.642075896E-1,1.237567902E1,1.238891204E1
1.948667296E0,3.383451223E0,3.349951655E-2,7.915457249E0,8.608328982E0
1.951042869E0,-6.489335060E0,3.158525825E-1,1.037049294E1,1.223757967E1
1.953418390E0,5.594419479E0,-7.130611539E-1,1.032263660E1,1.176277229E1
1.955793911E0,-4.259224415E0,3.302095234E-1,9.332008362E0,1.026335282E1
1.958169484E0,1.875972986E0,-3.206382394E-1,1.165783215E1,1.181216042E1
1.960545057E0,7.465606928E-1,-1.483550072E-1,7.604390144E0,7.642389125E0
1.962920577E0,-4.809573650E0,-3.302095234E-1,1.133240795E1,1.231521445E1
1.965296098E0,6.766902447E0,-4.163511395E-1,1.009771156E1,1.216256946E1
1.967671671E0,-5.833701611E0,5.982056856E-1,8.944371223E0,1.069540561E1
1.970047192E0,2.823530674E0,-2.440679073E-1,1.138983536E1,1.173713100E1
1.972422765E0,-1.225125194E0,-3.684946895E-1,8.087740898E0,8.188300978E0
1.974798286E0,-1.966900229E0,-4.785645306E-1,1.220818138E1,1.237487023E1
1.977173807E0,5.647061348E0,-2.201396823E-1,8.872586250E0,1.051953184E1
1.979549380E0,-6.728617191E0,6.460621357E-1,9.600004196E0,1.174102918E1
1.981924900E0,4.168296814E0,-3.349951804E-1,1.083470058E1,1.161368403E1
1.984300473E0,-2.871387243E0,-2.632105052E-1,8.709874153E0,9.174750800E0
1.986675994E0,3.589234054E-1,-4.546363056E-1,1.210768223E1,1.212152998E1
1.989051567E0,3.153740168E0,-1.914258115E-2,7.992027760E0,8.591795574E0
1.991427088E0,-6.565905571E0,5.264209956E-2,1.038963604E1,1.229058274E1
1.993802609E0,5.685346603E0,-6.508477330E-1,1.070548820E1,1.213895574E1
1.996178182E0,-4.211368084E0,4.402793646E-1,9.083154678E0,1.002163489E1
1.998553702E0,1.421336651E0,-2.392822653E-1,1.163390350E1,1.172284797E1
2.000929275E0,7.226324677E-1,3.349951655E-2,7.690532207E0,7.724480923E0
2.003304796E0,-4.900500774E0,-5.168496966E-1,1.118405342E1,1.222150123E1
2.005680369E0,6.561119556E0,-5.168496966E-1,1.022692394E1,1.216163627E1
2.008055890E0,-5.982056618E0,5.982056856E-1,9.078369141E0,1.088850943E1
2.010431463E0,2.689532757E0,-2.009970993E-1,1.129412270E1,1.161168350E1
2.012806932E0,-1.421336651E0,-4.689932466E-1,8.130811691E0,8.267421079E0
2.015182505E0,-2.172683001E0,-3.876372576E-1,1.216032505E1,1.235897728E1
2.017558077E0,5.517848969E0,-1.339980662E-1,8.767302513E0,1.036002925E1
2.019933598E0,-6.900900364E0,7.704889178E-1,9.446864128E0,1.172430471E1
2.022309171E0,3.986442566E0,-4.737788737E-1,1.099262714E1,1.170273653E1
2.024684692E0,-2.574677229E0,-6.221338734E-2,8.748159409E0,9.119381908E0
2.027060265E0,-1.483550072E-1,-4.019941986E-1,1.191625690E1,1.192395854E1
2.029435786E0,3.412165165E0,-1.100698411E-1,8.035098076E0,8.730279925E0
2.031811307E0,-6.565905571E0,2.201396823E-1,1.037527943E1,1.228030947E1
2.034186880E0,5.809773445E0,-5.647061467E-1,1.071506023E1,1.220183906E1
2.036562400E0,-4.220939159E0,5.455635786E-1,8.796015739E0,9.771584308E0
2.038937973E0,1.182054400E0,-6.699903309E-2,1.159083271E1,1.165114348E1
2.041313494E0,1.249053478E0,-3.732803464E-1,7.618747234E0,7.729474900E0
2.043689067E0,-4.924428940E0,-1.387837082E-1,1.126540947E1,1.229547526E1
2.046064588E0,6.384050846E0,-3.828516304E-1,1.022213840E1,1.205797637E1
2.048440161E0,-5.824130535E0,8.757730722E-1,8.805587769E0,1.059367032E1
2.050815682E0,2.383251429E0,-2.775674164E-1,1.148076344E1,1.172880472E1
2.053191202E0,-6.221339107E-1,-5.024927258E-1,7.939385414E0,7.979560783E0
2.055566775E0,-2.679961443E0,-4.019941986E-1,1.183490086E1,1.214119726E1
2.057942296E0,5.723631859E0,-2.057827413E-1,9.202795982E0,1.083945396E1
2.060317869E0,-6.853044033E0,8.470591903E-1,9.164510727E0,1.147475397E1
2.062693390E0,3.646661758E0,-4.929214716E-1,1.129412270E1,1.187848143E1
2.065068963E0,-1.732403636E0,-2.823530734E-1,8.551948547E0,8.730221622E0
2.067444484E0,-1.138983607E0,-4.642075896E-1,1.179183006E1,1.185580147E1
2.069820005E0,4.268795490E0,-8.135596663E-2,8.389236450E0,9.413209970E0
2.072195577E0,-7.001399040E0,3.828516304E-1,9.757930756E0,1.201596340E1
2.074571098E0,5.240281582E0,-7.752745152E-1,1.125583744E1,1.244007549E1
2.076946671E0,-3.292523861E0,2.249253243E-1,8.776873589E0,9.376823277E0
2.079322192E0,-1.435693540E-2,-2.344966233E-1,1.152383423E1,1.152622879E1
2.081697765E0,2.464607239E0,-3.541377485E-1,8.001599312E0,8.380053337E0
2.084073286E0,-5.915057659E0,-1.722832322E-1,1.077727318E1,1.229500735E1
2.086448859E0,6.029912949E0,-4.642075896E-1,1.064327526E1,1.224151327E1
2.088824380E0,-4.981856823E0,4.450650215E-1,8.470592499E0,9.837068545E0
2.091199900E0,9.714859724E-1,-7.274180651E-1,1.168175983E1,1.174463430E1
2.093575473E0,1.320838094E0,-1.818545163E-1,8.350951195E0,8.456717460E0
2.095950994E0,-4.335794449E0,-1.196411327E-1,1.109312534E1,1.191095535E1
2.098326567E0,5.513063431E0,-4.307080805E-1,9.504291534E0,1.099595086E1
2.100702088E0,-6.235695839E0,3.062812984E-1,9.044869423E0,1.099033092E1
2.103077661E0,2.852244616E0,-7.800601721E-1,1.198325539E1,1.234269836E1
2.105453182E0,1.435693651E-1,-4.785645287E-3,8.398807526E0,8.400035888E0
2.107828755E0,-3.565305710E0,-1.244267747E-1,1.113141060E1,1.168910556E1
2.110204275E0,4.914857864E0,-4.689932466E-1,9.016156197E0,1.027943846E1
2.112579796E0,-6.608976364E0,3.254238665E-1,9.576076508E0,1.163983293E1
2.114955369E0,4.694717884E0,-7.369893789E-1,1.190190029E1,1.281556709E1
2.117330890E0,-1.789831281E0,1.914258152E-1,8.049455643E0,8.248265030E0
2.119706463E0,-2.569891453E0,-5.742774606E-1,1.146640587E1,1.176488845E1
2.122081984E0,4.728217602E0,-4.929214716E-1,9.083154678E0,1.025196138E1
2.124457557E0,-6.020341873E0,2.775674164E-1,1.009771156E1,1.175947868E1
2.126833077E0,5.144568920E0,-4.689932466E-1,1.101177025E1,1.216329018E1
2.129208598E0,-3.651447296E0,1.818545163E-1,8.130811691E0,8.914944598E0
2.131584171E0,-9.140582681E-1,-7.513462901E-1,1.198804188E1,1.204629287E1
2.133959692E0,3.991228104E0,-4.067798555E-1,9.059226990E0,9.907823438E0
2.136335265E0,-5.278566837E0,4.211367965E-1,1.026520920E1,1.155054734E1
2.138710786E0,4.886143684E0,-2.679961324E-1,1.007856941E1,1.120373971E1
2.141086359E0,-4.967499733E0,-1.004985496E-1,8.719446182E0,1.003568111E1
2.143461880E0,1.502692580E0,-7.657032609E-1,1.233739376E1,1.245213521E1
2.145837452E0,2.646461725E0,-5.264209956E-2,8.528019905E0,8.929370322E0
2.148212973E0,-5.230710506E0,1.818545163E-1,1.047577763E1,1.171047908E1
2.150588494E0,4.986642361E0,-4.163511395E-1,9.633503914E0,1.085561366E1
2.152964067E0,-5.642275810E0,2.584248483E-1,9.332008362E0,1.090818224E1
2.155339588E0,3.498306751E0,-6.747759581E-1,1.225125217E1,1.275878727E1
2.157715161E0,1.435693651E-1,1.722832322E-1,7.700103283E0,7.703368370E0
2.160090682E0,-4.536791801E0,-2.775674164E-1,1.110748291E1,1.200148741E1
2.162466255E0,5.369493961E0,-4.737788737E-1,9.777072906E0,1.116454596E1
2.164841775E0,-5.709274769E0,5.216353536E-1,9.528220177E0,1.112002255E1
2.167217244E0,4.029513359E0,-4.115654826E-1,1.145683479E1,1.215176644E1
2.169592869E0,-1.976471543E0,2.775674164E-1,7.733603001E0,7.986995606E0
2.171968390E0,-3.244667530E0,-6.317051649E-1,1.162433243E1,1.208519852E1
2.174343963E0,5.580062389E0,-3.780659735E-1,9.743574142E0,1.123464584E1
2.176719484E0,-5.919843197E0,8.997012973E-1,9.504291534E0,1.123323477E1
2.179095005E0,3.833301783E0,-4.211367965E-1,1.070548820E1,1.137888555E1
2.181470577E0,-3.378665686E0,-8.614161611E-2,8.384450912E0,9.040012129E0
2.183846098E0,-8.087740541E-1,-5.647061467E-1,1.214596748E1,1.218595645E1
2.186221671E0,4.536791801E0,-1.722832322E-1,8.815158844E0,9.915603199E0
2.188597192E0,-6.474977970E0,5.120640397E-1,9.700503349E0,1.167421580E1
2.190972765E0,4.407579422E0,-6.364908218E-1,1.051406288E1,1.141829213E1
2.193348286E0,-4.326223373E0,2.105683982E-1,8.958727837E0,9.950846807E0
2.195723859E0,1.469193101E0,-2.153540403E-1,1.202632618E1,1.211764941E1
2.198099380E0,2.143969059E0,1.627119333E-1,7.709674358E0,8.003883883E0
2.200474900E0,-6.192625046E0,-3.972085714E-1,1.047577763E1,1.217572571E1
2.202850473E0,5.584847927E0,-2.584248483E-1,1.041835022E1,1.182367672E1
2.205225994E0,-4.680361271E0,8.279166222E-1,9.035298347E0,1.020920388E1
2.207601567E0,1.818545222E0,-6.460621357E-1,1.129412270E1,1.145782311E1
2.209977088E0,4.929214716E-1,-1.627119333E-1,7.925028801E0,7.942010340E0
2.212352661E0,-4.766502857E0,9.571290575E-3,1.134197903E1,1.230285046E1
2.214728182E0,6.297909260E0,-4.594219327E-1,9.844072342E0,1.169531914E1
2.217103755E0,-5.857629776E0,8.279166222E-1,8.877371788E0,1.066794274E1
2.219479275E0,2.804388046E0,-7.322037220E-1,1.145204926E1,1.181313450E1
2.221854796E0,-9.332008362E-1,1.579262912E-1,8.073383331E0,8.128672888E0
2.224230369E0,-2.775674343E0,-3.062812984E-1,1.148554897E1,1.182015277E1
2.226605890E0,5.800201893E0,-1.579262912E-1,9.403793335E0,1.104982406E1
2.228981463E0,-6.431907177E0,5.694918036E-1,9.006584167E0,1.108207152E1
2.231356984E0,3.828516245E0,-7.657032609E-1,1.121755219E1,1.187759720E1
2.233732557E0,-1.942971945E0,-9.571290575E-3,8.614161491E0,8.830572450E0
2.236108077E0,-9.379864931E-1,-9.571290761E-2,1.166740322E1,1.170543795E1
2.238483598E0,4.407579422E0,-4.785645287E-3,8.389236450E0,9.476606327E0
2.240859171E0,-6.608976364E0,-4.785645287E-3,9.705288887E0,1.174185777E1
2.243234692E0,5.082355499E0,-5.264210105E-1,1.135155106E1,1.244850063E1
2.245610265E0,-2.574677229E0,2.967100143E-1,8.599804878E0,8.981850790E0
2.247985786E0,-2.249253243E-1,-2.536391914E-1,1.141376400E1,1.141879735E1
2.250361359E0,3.278167009E0,-4.546363056E-1,8.202595711E0,8.845091831E0
2.252736880E0,-6.183053493E0,2.871387079E-2,1.029392338E1,1.200815696E1
2.255112400E0,6.221338749E0,-2.536391914E-1,1.123190975E1,1.284232009E1
2.257487973E0,-4.019941807E0,7.704889178E-1,8.178668022E0,9.145720088E0
2.259863494E0,4.450650215E-1,-1.210768223E0,1.147119141E1,1.154349491E1
2.262239067E0,2.392822742E0,-1.435693651E-1,8.542376518E0,8.872339569E0
2.264614588E0,-4.809573650E0,9.188438654E-1,1.105005455E1,1.208635505E1
2.266990109E0,5.618347645E0,-1.229910851E0,9.422935486E0,1.103948478E1
2.269365682E0,-5.345565796E0,2.679961324E-1,9.188439369E0,1.063364066E1
2.271741202E0,2.459821701E0,1.292124242E-1,1.204546928E1,1.229474477E1
2.274116775E0,6.795616150E-1,4.785645381E-2,7.590033531E0,7.620544812E0
2.276492296E0,-4.484149456E0,-8.039883971E-1,1.116491032E1,1.205857438E1
2.278867869E0,5.785845280E0,-2.057827413E-1,9.848857880E0,1.142446295E1
2.281243390E0,-6.154339790E0,9.044869542E-1,8.939585686E0,1.089083042E1
2.283618963E0,2.904886723E0,-4.642075896E-1,1.152861977E1,1.189802207E1
2.285994484E0,-6.604190469E-1,-4.785645381E-2,8.236095428E0,8.262669754E0
2.288370005E0,-3.378665686E0,-6.029912829E-1,1.119362450E1,1.170795497E1
2.290745577E0,5.187639713E0,1.435693540E-2,9.245866776E0,1.060178590E1
2.293121098E0,-6.790830612E0,7.800601721E-1,9.260223389E0,1.150980502E1
2.295496671E0,4.201796532E0,-4.163511395E-1,1.153340530E1,1.228201450E1
2.297872192E0,-2.416750908E0,1.770688742E-1,8.068597794E0,8.424625137E0
2.300247765E0,-2.258824587E0,-5.647061467E-1,1.148076344E1,1.171448294E1
2.302623286E0,4.503292084E0,-1.052841991E-1,9.035298347E0,1.009590712E1
2.304998859E0,-6.221338749E0,6.699903607E-1,9.887143135E0,1.170083511E1
2.307374380E0,4.618147850E0,-2.105683982E-1,1.090170002E1,1.184139738E1
2.309749900E0,-3.909872293E0,2.153540403E-1,8.039883614E0,8.942774023E0
2.312125473E0,-7.322037220E-1,-6.699903607E-1,1.177268696E1,1.181444741E1
2.314500994E0,3.818944931E0,-2.201396823E-1,9.030512810E0,9.807291342E0
2.316876567E0,-5.637490273E0,7.417750359E-1,1.012642574E1,1.161361378E1
2.319252088E0,4.460221291E0,-2.632105052E-1,9.911071777E0,1.087162350E1
2.321627609E0,-4.876572609E0,-4.785645287E-3,8.762516975E0,1.002809489E1
2.324003182E0,1.545763373E0,-4.450650215E-1,1.242832088E1,1.253198417E1
2.326378702E0,2.287538528E0,4.067798555E-1,7.910671711E0,8.244818330E0
2.328754275E0,-5.685346603E0,-5.982056856E-1,1.028913784E1,1.177061483E1
2.331129744E0,5.426921844E0,-2.632105052E-1,1.032263660E1,1.166522983E1
2.333505369E0,-5.340780258E0,6.029912829E-1,8.982656479E0,1.046783883E1
2.335880890E0,3.148954630E0,-4.642075896E-1,1.187797165E1,1.229705715E1
2.338256463E0,-1.292124242E-1,-6.221338734E-2,7.719245911E0,7.720577944E0
2.340631984E0,-4.369294167E0,-6.173482537E-1,1.125583744E1,1.208990186E1
2.343007505E0,5.910272121E0,-3.732803464E-1,1.004506969E1,1.166079242E1
2.345383077E0,-5.326423168E0,9.044869542E-1,9.360722542E0,1.080796035E1
2.347758598E0,3.436093330E0,-6.317051649E-1,1.129890823E1,1.182671197E1
2.350134171E0,-1.363908887E0,-2.871387303E-1,7.968099594E0,8.089085687E0
2.352509692E0,-2.857030153E0,-3.541377485E-1,1.168654537E1,1.203592030E1
2.354885265E0,6.029912949E0,-5.072783828E-1,9.571290970E0,1.132372696E1
2.357260786E0,-6.063412666E0,5.551348329E-1,9.394221306E0,1.119484443E1
2.359636307E0,3.890729666E0,-8.374879360E-1,1.097348499E1,1.167289751E1
2.362011880E0,-2.541177750E0,1.435693540E-2,8.575876236E0,8.944464416E0
2.364387400E0,-6.795616150E-1,-3.732803464E-1,1.213639641E1,1.216113728E1
2.366762973E0,4.637290478E0,9.571290575E-3,8.595019341E0,9.766212779E0
2.369138494E0,-6.532405853E0,-2.249253243E-1,9.681360245E0,1.168125224E1
2.371514067E0,4.900500774E0,-3.876372576E-1,1.103091240E1,1.207667996E1
2.373889588E0,-3.594019651E0,1.674975902E-1,8.685946465E0,9.401632767E0
2.376265109E0,8.135597110E-1,-4.785645306E-1,1.194497108E1,1.198220504E1
2.378640682E0,2.507678032E0,-1.579262912E-1,8.283951759E0,8.656630209E0
2.381016202E0,-6.096911907E0,-3.589234054E-1,1.049491978E1,1.214267277E1
2.383391775E0,5.675775528E0,-2.727817893E-1,1.082991505E1,1.223012255E1
2.385767296E0,-4.460221291E0,7.752745152E-1,8.815158844E0,9.909674565E0
2.388142869E0,1.239482164E0,-9.475577474E-1,1.154776192E1,1.165268154E1
2.390518390E0,1.024128079E0,-4.642075896E-1,8.130811691E0,8.208192601E0
2.392893911E0,-4.780859470E0,3.541377485E-1,1.130848026E1,1.228266081E1
2.395269484E0,5.618347645E0,-3.924229145E-1,9.686145782E0,1.120451900E1
2.397645005E0,-5.848058701E0,1.627119333E-1,9.159725189E0,1.086861681E1
2.400020577E0,2.646461725E0,-4.642075896E-1,1.204068375E1,1.233682753E1
2.402396098E0,-5.407779217E-1,1.100698411E-1,7.704888821E0,7.724627361E0
2.404771671E0,-3.694518089E0,-3.349951804E-1,1.142333508E1,1.201058991E1
2.407147192E0,5.422136307E0,-4.163511395E-1,9.690931320E0,1.111247318E1
2.409522765E0,-6.340980053E0,3.684946895E-1,9.140582085E0,1.113077074E1
2.411898286E0,3.455235958E0,-3.876372576E-1,1.158126163E1,1.209192041E1
2.414273807E0,-1.823330879E0,2.392822690E-2,8.145168304E0,8.346788290E0
2.416649380E0,-2.048256159E0,-5.024927258E-1,1.160997581E1,1.179997418E1
2.419024900E0,4.474578381E0,-2.536391914E-1,8.920442581E0,9.983009585E0
2.421400473E0,-6.733402729E0,4.307080805E-1,9.667003632E0,1.178877351E1
2.423775994E0,4.527220249E0,-6.077769399E-1,1.121276665E1,1.210748743E1
2.426151567E0,-2.857030153E0,2.823530734E-1,8.681160927E0,9.143571490E0
2.428527088E0,-7.752745152E-1,-6.891329288E-1,1.137547874E1,1.142267357E1
2.430902609E0,3.383451223E0,-2.057827413E-1,8.484949112E0,9.136982552E0
2.433278182E0,-6.168696880E0,2.249253243E-1,1.038485050E1,1.208091605E1
2.435653702E0,5.690132141E0,-3.972085714E-1,1.068634605E1,1.211335504E1
2.438029275E0,-4.517649174E0,3.637090325E-1,8.542376518E0,9.670244821E0
2.440404796E0,7.992027402E-1,-7.752745152E-1,1.173918819E1,1.179187496E1
2.442780369E0,1.794616938E0,-2.201396823E-1,8.312665939E0,8.507028062E0
2.445155890E0,-4.584648132E0,-4.307080805E-2,1.109791183E1,1.200768507E1
2.447531411E0,5.828916073E0,-2.344966233E-1,9.858428955E0,1.145512430E1
2.449906984E0,-5.862415314E0,5.024927258E-1,8.685946465E0,1.049123817E1
2.452282505E0,2.517249346E0,-9.475577474E-1,1.180618668E1,1.210869331E1
2.454658077E0,4.881358147E-1,-1.627119333E-1,8.504091263E0,8.519643182E0
2.457033598E0,-3.125026464E0,-1.148554832E-1,1.119841003E1,1.162683833E1
2.459409119E0,5.283352375E0,-2.392822690E-2,9.183652878E0,1.059499245E1
2.461784692E0,-6.575476646E0,2.775674164E-1,9.164510727E0,1.128282738E1
2.464160213E0,4.374079704E0,-9.236295223E-1,1.189711380E1,1.270932656E1
2.466535786E0,-1.067198873E0,1.004985496E-1,8.389236450E0,8.457440606E0
2.468911307E0,-2.019542217E0,-2.919243574E-1,1.133719349E1,1.151936313E1
2.471286880E0,4.570291042E0,-4.737788737E-1,8.695517540E0,9.834838683E0
2.473662400E0,-6.250052929E0,4.785645381E-2,1.007856941E1,1.185930071E1
2.476037921E0,5.513063431E0,-5.551348329E-1,1.138983536E1,1.266611197E1
2.478413494E0,-3.282952785E0,3.972085714E-1,8.173882484E0,8.817477446E0
2.480789015E0,-7.465606928E-1,-3.972085714E-1,1.169611740E1,1.172664870E1
2.483164588E0,3.412165165E0,-6.747759581E-1,8.633303642E0,9.307638019E0
2.485540109E0,-5.249852657E0,7.178468257E-2,1.061934662E1,1.184637618E1
2.487915682E0,5.589633465E0,-3.493520916E-1,1.034177971E1,1.176088673E1
2.490291202E0,-5.000999451E0,4.067798555E-1,8.489734650E0,9.861595194E0
2.492666775E0,1.000199914E0,-8.949156404E-1,1.199282742E1,1.206769171E1
2.495042296E0,2.239681959E0,-9.571290761E-2,8.566305161E0,8.854768226E0
2.497417817E0,-4.608576298E0,8.135596663E-2,1.068634605E1,1.163802330E1
2.499793390E0,5.178068161E0,-3.828516230E-2,9.628718376E0,1.093279805E1
2.502168911E0,-6.178267956E0,2.823530734E-1,8.748159409E0,1.071359003E1
2.504544484E0,3.282952785E0,-8.374879360E-1,1.217946720E1,1.264193760E1
2.506920005E0,8.614161611E-2,1.435693651E-1,8.030312538E0,8.032057769E0
2.509295525E0,-3.962514400E0,-8.135596663E-2,1.102134132E1,1.171230565E1
2.511671098E0,4.948357105E0,-5.503492355E-1,9.265008926E0,1.051805651E1
2.514046619E0,-6.197410583E0,3.254238665E-1,9.657432556E0,1.147953841E1
2.516422192E0,4.541577339E0,-4.546363056E-1,1.161476135E1,1.247939502E1
2.518797713E0,-2.378465652E0,4.067798555E-1,7.858029366E0,8.220169963E0
2.521173286E0,-2.656033039E0,-3.924229145E-1,1.135633659E1,1.166939965E1
2.523548807E0,4.680361271E0,-7.561319470E-1,9.097511292E0,1.025876351E1
2.525924380E0,-5.714060307E0,6.125625968E-1,1.028913784E1,1.178524822E1
2.528299900E0,4.622933388E0,-1.818545163E-1,1.051884842E1,1.149133396E1
2.530675421E0,-4.220939159E0,2.297109663E-1,8.154739380E0,9.185252793E0
2.533050994E0,-4.115654826E-1,-8.757730722E-1,1.193061352E1,1.196979129E1
2.535426463E0,3.890729666E0,-1.579262912E-1,9.087940216E0,9.887030667E0
2.537802088E0,-5.580062389E0,3.780659735E-1,9.992427826E0,1.145114160E1
2.540177609E0,4.728217602E0,-2.392822690E-2,9.997213364E0,1.105897325E1
2.542553182E0,-5.163711071E0,-5.264209956E-2,8.776873589E0,1.018332918E1
2.544928702E0,2.230110645E0,-8.231309652E-1,1.246182060E1,1.268652477E1
2.547304223E0,1.962114573E0,6.699903309E-2,7.963313580E0,8.201752595E0
2.549679796E0,-5.292923450E0,4.785645287E-3,1.054756260E1,1.180110750E1
2.552055317E0,5.168497086E0,-5.886343718E-1,9.949356079E0,1.122717858E1
2.554430890E0,-5.201996326E0,3.349951804E-1,9.399007797E0,1.074775954E1
2.556806411E0,3.570091486E0,-5.647061467E-1,1.180140114E1,1.234250846E1
2.559181984E0,-5.024927258E-1,2.249253243E-1,7.776673794E0,7.796136584E0
2.561557505E0,-4.197010994E0,-3.684946895E-1,1.112183952E1,1.189310742E1
2.563933025E0,5.766702652E0,-7.465606928E-1,9.810572624E0,1.140436529E1
2.566308598E0,-5.608776093E0,5.551348329E-1,9.590433121E0,1.112398091E1
2.568684119E0,4.043870449E0,-4.594219327E-1,1.119841003E1,1.191504696E1
2.571059692E0,-2.579462767E0,-1.196411327E-1,7.910671711E0,8.321458351E0
2.573435213E0,-1.976471543E0,-7.226324677E-1,1.183011532E1,1.201583397E1
2.575810734E0,5.422136307E0,-3.302095234E-1,9.384650230E0,1.084344320E1
2.578186307E0,-6.120840549E0,5.742774606E-1,9.456435204E0,1.127912454E1
2.580561827E0,4.211368084E0,-2.105683982E-1,1.068634605E1,1.148816574E1
2.582937400E0,-3.665804386E0,-2.153540403E-1,8.422736168E0,9.188415735E0
2.585312921E0,5.599204898E-1,-6.556333899E-1,1.235175037E1,1.238180534E1
2.587688494E0,3.589233875E0,-4.307080805E-2,8.183453560E0,8.936071121E0
2.590064015E0,-6.235695839E0,2.153540403E-1,1.015035343E1,1.191469491E1
2.592439536E0,5.111069202E0,-6.173482537E-1,1.044227791E1,1.164239302E1
2.594815109E0,-4.197010994E0,3.014956415E-1,9.164510727E0,1.008434717E1
2.597190630E0,2.143969059E0,-4.689932466E-1,1.186361504E1,1.206490446E1
2.599566202E0,1.000199914E0,1.052841991E-1,7.781459332E0,7.846183401E0
2.601941723E0,-5.178068161E0,-4.259224236E-1,1.091127110E1,1.208509978E1
2.604317296E0,6.125626087E0,-5.647061467E-1,1.025085258E1,1.195500593E1
2.606692817E0,-5.225924492E0,9.188438654E-1,9.140582085E0,1.056904923E1
2.609068338E0,2.804388046E0,-3.397808075E-1,1.142812061E1,1.177208495E1
2.611443911E0,-1.019342422E0,-3.349951804E-1,7.814958572E0,7.888273463E0
2.613819432E0,-3.034099102E0,-5.072783828E-1,1.164826107E1,1.204761697E1
2.616195005E0,6.082555294E0,-3.158525825E-1,9.676574707E0,1.143386810E1
2.618570525E0,-6.326622963E0,8.422735929E-1,9.068798065E0,1.108957534E1
2.620946098E0,3.493520975E0,-6.556333899E-1,1.109312534E1,1.164868979E1
2.623321619E0,-2.230110645E0,-1.531406492E-1,8.461020470E0,8.751326353E0
2.625697140E0,-7.752745152E-1,-3.541377485E-1,1.208375454E1,1.211377678E1
2.628072713E0,4.479363918E0,3.349951655E-2,8.417949677E0,9.535601716E0
2.630448234E0,-6.900900364E0,4.402793646E-1,9.710074425E0,1.192064667E1
2.632823807E0,4.723432064E0,-8.374879360E-1,1.077727318E1,1.179668655E1
2.635199327E0,-3.225524902E0,2.057827413E-1,9.169296265E0,9.722260613E0
2.637574900E0,5.551348329E-1,-3.972085714E-1,1.161476135E1,1.163480256E1
2.639950421E0,2.330609322E0,3.062812984E-1,7.977670670E0,8.316776861E0
2.642325994E0,-6.317051888E0,1.914258115E-2,1.036570740E1,1.213892091E1
2.644701515E0,5.848058701E0,-7.704889178E-1,1.054277611E1,1.208071073E1
2.647077036E0,-4.699503899E0,4.833501875E-1,8.939585686E0,1.011114022E1
2.649452609E0,1.631905079E0,-4.115654826E-1,1.161476135E1,1.173606329E1
2.651828130E0,2.823530734E-1,-8.614161611E-2,7.920242786E0,7.925742201E0
2.654203702E0,-4.445864677E0,-2.344966233E-1,1.128933716E1,1.213547835E1
2.656579223E0,5.977271080E0,-2.871387303E-1,9.777072906E0,1.146304379E1
2.658954744E0,-6.144768715E0,7.226324677E-1,8.901300430E0,1.084036575E1
2.661330317E0,2.699103832E0,-6.269195080E-1,1.139940739E1,1.173135450E1
2.663705838E0,-1.119840980E0,4.785645287E-3,8.288737297E0,8.364044040E0
2.666081411E0,-2.325823545E0,-1.483550072E-1,1.171047401E1,1.194012839E1
2.668456932E0,4.900500774E0,3.828516230E-2,8.781659126E0,1.005653572E1
2.670832505E0,-6.963113785E0,5.359922647E-1,9.332008362E0,1.165584065E1
2.673208025E0,4.264009953E0,-7.369893789E-1,1.118405342E1,1.199199671E1
2.675583546E0,-2.435893536E0,2.679961324E-1,8.910871506E0,9.241700614E0
2.677959119E0,-6.556333899E-1,-2.536391914E-1,1.152861977E1,1.155003297E1
2.680334640E0,3.182454109E0,2.392822690E-2,8.082955360E0,8.686930072E0
2.682710213E0,-6.388836384E0,-1.292124242E-1,1.033220863E1,1.214859916E1
2.685085734E0,5.838487148E0,-4.785645306E-1,1.101177025E1,1.247301247E1
2.687461307E0,-4.259224415E0,6.077769399E-1,8.614161491E0,9.628819430E0
2.689836827E0,8.997012973E-1,-1.818545163E-1,1.168175983E1,1.171776627E1
2.692212348E0,1.292124271E0,-4.450650215E-1,7.886743546E0,8.004273344E0
2.694587921E0,-4.436293125E0,-3.828516304E-1,1.127498055E1,1.212239491E1
2.696963442E0,6.183053493E0,-3.876372576E-1,1.020299530E1,1.193656258E1
2.699339015E0,-5.642275810E0,7.752745152E-1,8.767302513E0,1.045475587E1
2.701714536E0,2.450250387E0,-4.211367965E-1,1.166740322E1,1.192934957E1
2.704090057E0,-8.614161611E-2,-5.694918036E-1,8.212167740E0,8.232341118E0
2.706465630E0,-2.574677229E0,-2.679961324E-1,1.160040379E1,1.188571213E1
2.708841150E0,5.541777134E0,-2.344966233E-1,9.198010445E0,1.074102782E1
2.711216723E0,-6.613761902E0,5.742774606E-1,9.188439369E0,1.133574255E1
2.713592244E0,4.125226021E0,-9.810572863E-1,1.156211948E1,1.231513581E1
2.715967817E0,-1.191625714E0,-4.785645287E-3,8.690732002E0,8.772047508E0
2.718343338E0,-1.354337573E0,-3.445664644E-1,1.154297638E1,1.162726365E1
2.720718859E0,4.302295208E0,-2.392822690E-2,8.403593063E0,9.440905306E0
2.723094432E0,-6.484549522E0,1.244267747E-1,9.815358162E0,1.176461306E1
2.725469952E0,5.623133183E0,-7.417750359E-1,1.116969585E1,1.252724880E1
2.727845525E0,-3.297309637E0,2.009970993E-1,8.489734650E0,9.109788422E0
2.730221046E0,-6.699903309E-2,-4.019941986E-1,1.174875927E1,1.175582547E1
2.732596619E0,2.727817774E0,-3.014956415E-1,8.303094864E0,8.744899871E0
2.734972140E0,-5.091926575E0,4.307080805E-2,1.085862923E1,1.199330647E1
2.737347661E0,5.761917114E0,-4.019941986E-1,1.014078236E1,1.167033654E1
2.739723234E0,-5.154139996E0,2.871387303E-1,8.599804878E0,1.003016708E1
2.742098755E0,1.536192179E0,-5.024927258E-1,1.194018459E1,1.204908268E1
2.744474327E0,1.172483087E0,-1.339980662E-1,8.322237015E0,8.405492312E0
2.746849848E0,-4.130012035E0,-7.657032460E-2,1.109312534E1,1.183724175E1
2.749225421E0,5.187639713E0,-4.737788737E-1,9.298508644E0,1.065825198E1
2.751600942E0,-6.350551128E0,3.637090325E-1,9.274580956E0,1.124631654E1
2.753976463E0,3.479164124E0,-5.790630579E-1,1.184925747E1,1.236304168E1
2.756352036E0,-1.062413216E0,3.206382394E-1,8.231309891E0,8.305780712E0
2.758727557E0,-2.967100143E0,-8.135596663E-2,1.132762241E1,1.171005259E1
2.761103130E0,4.436293125E0,-6.364908218E-1,8.556734085E0,9.659374486E0
2.763478650E0,-6.594619274E0,1.004985496E-1,9.992427826E0,1.197279070E1
2.765854171E0,5.134997368E0,-2.536391914E-1,1.138983536E1,1.249643470E1
2.768229744E0,-3.675375462E0,7.178468108E-1,8.121239662E0,8.943054427E0
2.770605265E0,-1.450050473E0,-9.858429432E-1,1.141376400E1,1.154766389E1
2.772980838E0,3.450450182E0,-5.503492355E-1,8.886942863E0,9.549148873E0
2.775356359E0,-5.302495003E0,7.609176040E-1,1.079641533E1,1.205230405E1
2.777731932E0,4.689932346E0,-6.029912829E-1,9.585647583E0,1.068848462E1
2.780107452E0,-5.240281582E0,-1.674975902E-1,8.886942863E0,1.031825373E1
2.782483025E0,1.459621787E0,-1.531406492E-1,1.243310642E1,1.251942823E1
2.784858546E0,1.612762451E0,1.148554832E-1,7.824530125E0,7.989835178E0
2.787234067E0,-5.020142078E0,-8.470591903E-1,1.066720295E1,1.181983733E1
2.789609640E0,5.474778175E0,-4.450650215E-1,1.019342422E1,1.157916993E1
2.791985161E0,-5.871986866E0,7.848458290E-1,8.906085968E0,1.069647512E1
2.794360734E0,3.043670416E0,-4.881358147E-1,1.174875927E1,1.214642131E1
2.796736255E0,-7.992027402E-1,-2.871387303E-1,8.087740898E0,8.132203054E0
2.799111775E0,-2.938386202E0,-6.412764788E-1,1.141376400E1,1.180336213E1
2.801487348E0,5.192425251E0,-4.211367965E-1,9.241081238E0,1.060830894E1
2.803862869E0,-6.293123722E0,4.163511395E-1,9.700503349E0,1.157050214E1
2.806238442E0,4.656432629E0,-2.536391914E-1,1.130848026E1,1.223226976E1
2.808640577E0,-3.034099102E0,-8.614161611E-2,8.130811691E0,8.678898346E0
2.810989536E0,-1.052842021E0,-6.556333899E-1,1.172004509E1,1.178549059E1
2.813365057E0,4.106083870E0,-4.977070987E-1,8.776873589E0,9.702636090E0
2.815740577E0,-5.364708424E0,4.402793646E-1,1.049491978E1,1.179479900E1
2.818116150E0,5.058426857E0,-1.244267747E-1,1.018863869E1,1.137591854E1
2.820491671E0,-4.780859470E0,-6.221338734E-2,8.374878883E0,9.643603273E0
2.822867244E0,1.316052437E0,-6.604190469E-1,1.225603771E1,1.234417303E1
2.825242765E0,2.584248543E0,-3.062812984E-1,8.417949677E0,8.811017281E0
2.827618338E0,-4.661218643E0,1.579262912E-1,1.086341476E1,1.182225360E1
2.829993859E0,5.158925533E0,-2.536391914E-1,9.384650230E0,1.071216623E1
2.832369380E0,-5.694917679E0,5.264209956E-2,9.298508644E0,1.090399567E1
2.834744952E0,3.751945972E0,-4.307080805E-1,1.217468166E1,1.274697931E1
2.837120473E0,-1.292124242E-1,4.689932466E-1,7.838887215E0,7.853967359E0
2.839496046E0,-3.708875179E0,-6.125625968E-1,1.095434189E1,1.158139000E1
2.841871567E0,5.431707382E0,-5.934200287E-1,9.513862610E0,1.097128863E1
2.844247140E0,-5.388636589E0,9.044869542E-1,9.925428391E0,1.133003220E1
2.846622661E0,4.211368084E0,-5.168496966E-1,1.078205872E1,1.158686950E1
2.848998182E0,-2.689532757E0,-4.594219327E-1,8.446663857E0,8.876417367E0
2.851373755E0,-1.071984529E0,-3.349951655E-2,1.214596748E1,1.219322759E1
2.853749275E0,4.407579422E0,-3.876372576E-1,8.312665939E0,9.416869651E0
2.856124848E0,-5.728417397E0,5.264210105E-1,1.038485050E1,1.187168922E1
2.858500369E0,4.919643402E0,-3.780659735E-1,1.015992451E1,1.129468420E1
2.860875890E0,-4.484149456E0,-1.722832322E-1,8.566305161E0,9.670515082E0
2.863251463E0,1.153340459E0,-2.823530734E-1,1.243789196E1,1.249444172E1
2.865626984E0,2.445464849E0,2.009970993E-1,8.102097511E0,8.465499527E0
2.868002557E0,-5.307280540E0,-3.828516304E-1,1.038963604E1,1.167297473E1
2.870378077E0,5.402993679E0,-4.642075896E-1,9.997213364E0,1.137330666E1
2.872753650E0,-5.517848969E0,4.689932466E-1,9.068798065E0,1.062589809E1
2.875129171E0,3.230310678E0,-4.259224236E-1,1.193061352E1,1.236753233E1
2.877504692E0,-5.982056856E-1,6.221338734E-2,7.877171993E0,7.900098680E0
2.879880265E0,-3.694518089E0,-2.823530734E-1,1.124626637E1,1.184093300E1
2.882255786E0,5.259424210E0,-6.795616150E-1,9.231510162E0,1.064631988E1
2.884631359E0,-5.876772404E0,4.354937077E-1,9.848857880E0,1.147719958E1
2.887006880E0,4.335794449E0,-2.871387303E-1,1.114576817E1,1.196284708E1
2.889382400E0,-2.928814888E0,3.302095234E-1,8.001599312E0,8.527167556E0
2.891757973E0,-1.895115495E0,-6.747759581E-1,1.140897846E1,1.158497194E1
2.894133494E0,4.747360229E0,-8.470591903E-1,9.150154114E0,1.034312616E1
2.896509067E0,-5.498706341E0,6.604190469E-1,1.029392338E1,1.168917376E1
2.898884588E0,4.393222332E0,-1.052841991E-1,9.968499184E0,1.089414812E1
2.901260161E0,-4.718646049E0,-4.354937077E-1,8.561519623E0,9.785442942E0
2.903635682E0,9.762716293E-1,-2.919243574E-1,1.240917778E1,1.245094451E1
2.906011255E0,3.043670416E0,1.579262912E-1,8.044670105E0,8.602650023E0
2.908386775E0,-5.694917679E0,-5.838487148E-1,1.016949654E1,1.167011682E1
2.910762296E0,5.398207664E0,-4.450650215E-1,1.037049294E1,1.169982276E1
2.913137869E0,-5.115854740E0,9.188438654E-1,8.906085968E0,1.031186749E1
2.915513390E0,2.536391973E0,-5.120640397E-1,1.168654537E1,1.196957963E1
2.917888963E0,-2.392822690E-2,-7.369893789E-1,7.905886173E0,7.940199121E0
2.920264484E0,-3.608376503E0,1.531406492E-1,1.162433243E1,1.217246637E1
2.922640005E0,5.503491879E0,-3.637090325E-1,9.001798630E0,1.055713435E1
2.925015577E0,-6.010770321E0,6.460621357E-1,9.547362328E0,1.130039307E1
2.927391098E0,4.043870449E0,-3.254238665E-1,1.139940739E1,1.209980486E1
2.929766671E0,-2.153540373E0,-3.684946895E-1,7.752745152E0,8.054724195E0
2.932142192E0,-1.986042738E0,-4.402793646E-1,1.176311588E1,1.193771783E1
2.934517765E0,5.144568920E0,-4.642075896E-1,9.121439934E0,1.048249706E1
2.936893234E0,-5.938985825E0,8.566305041E-1,9.887143135E0,1.156550768E1
2.939268807E0,4.316651821E0,-3.302095234E-1,1.018863869E1,1.107027008E1
2.941644380E0,-3.943371773E0,-4.019941986E-1,8.695517540E0,9.556348966E0
2.944019900E0,8.039883971E-1,-3.493520916E-1,1.246182060E1,1.249261450E1
2.946395473E0,3.292523861E0,1.579262912E-1,8.049455643E0,8.698240640E0
2.948770994E0,-5.924628735E0,-3.924229145E-1,1.010249710E1,1.171817687E1
2.951146515E0,5.355136871E0,-4.450650215E-1,1.051406288E1,1.180767090E1
2.953522088E0,-4.833501816E0,5.024927258E-1,8.920442581E0,1.015822497E1
2.955897609E0,2.502892494E0,-2.584248483E-1,1.193539906E1,1.219774589E1
2.958273182E0,2.440679073E-1,-2.201396823E-1,7.791030407E0,7.797960337E0
2.960648702E0,-4.311866283E0,-3.397808075E-1,1.120319557E1,1.200913123E1
2.963024275E0,5.828916073E0,-5.455635786E-1,9.868000984E0,1.147394203E1
2.965399796E0,-5.589633465E0,6.221339107E-1,9.523433685E0,1.106014656E1
2.967775317E0,3.536591768E0,-1.579262912E-1,1.138026428E1,1.191817256E1
2.970150890E0,-2.057827473E0,-2.153540403E-1,7.719245911E0,7.991732522E0
2.972526411E0,-2.526820660E0,-5.312066078E-1,1.168654537E1,1.196838944E1
2.974901984E0,5.546562672E0,-6.029912829E-1,9.456435204E0,1.097962307E1
2.977277505E0,-6.063412666E0,5.982056856E-1,9.657432556E0,1.141879270E1
2.979653077E0,4.134797573E0,2.392822690E-2,1.073898792E1,1.150751863E1
2.982028598E0,-4.010370731E0,-3.110669553E-1,8.207381248E0,9.140073469E0
2.984404119E0,1.483550072E-1,-5.838487148E-1,1.231346512E1,1.232819175E1
2.986779692E0,3.799802303E0,-2.344966233E-1,8.417949677E0,9.238796619E0
2.989155213E0,-6.077769279E0,3.828516304E-1,1.019820976E1,1.187810326E1
2.991530786E0,4.694717884E0,-4.689932466E-1,1.003071213E1,1.108492293E1
2.993906307E0,-4.766502857E0,-6.699903309E-2,9.150154114E0,1.031742985E1
2.996281827E0,2.292324066E0,-3.828516304E-1,1.220339584E1,1.242272897E1
2.998657400E0,9.762716293E-1,-9.571290575E-3,7.637889862E0,7.700036328E0
3.001032921E0,-5.369493961E0,-3.349951655E-2,1.096869946E1,1.221249178E1
3.003408494E0,5.556134224E0,-7.800601721E-1,9.920642853E0,1.139729249E1
3.005784015E0,-5.154139996E0,4.833501875E-1,9.523433685E0,1.083949149E1
3.008159536E0,3.158525944E0,-2.584248483E-1,1.136112213E1,1.179483640E1
3.010535109E0,-1.344766378E0,-2.727817893E-1,7.695317745E0,7.816695064E0
3.012910630E0,-3.369094372E0,-3.732803464E-1,1.173440266E1,1.221418605E1
3.015286202E0,5.962913990E0,-4.785645306E-1,9.657432556E0,1.136007794E1
3.017661723E0,-6.053841114E0,6.364908218E-1,9.226723671E0,1.105380217E1
3.020037296E0,3.775874138E0,-1.531406492E-1,1.100698376E1,1.163762729E1
3.022412817E0,-2.895315409E0,-4.211367965E-1,8.250452042E0,8.753865798E0
3.024788338E0,-4.833501875E-1,-4.115654826E-1,1.225125217E1,1.226768900E1
3.027163911E0,4.570291042E0,-2.153540403E-1,8.542376518E0,9.690517744E0
3.029539432E0,-6.317051888E0,5.599204898E-1,9.810572624E0,1.168186589E1
3.031915005E0,4.771288395E0,-6.029912829E-1,1.059063339E1,1.163143616E1
3.034290525E0,-3.708875179E0,-9.571290761E-2,9.025727272E0,9.758517759E0
3.036666098E0,1.574477315E0,-3.062812984E-1,1.204068375E1,1.214705117E1
3.039041619E0,2.158325911E0,-8.135596663E-2,7.805387497E0,8.098707521E0
3.041417140E0,-5.632704735E0,-1.770688742E-1,1.059541893E1,1.200090073E1
3.043792713E0,6.020341873E0,-6.317051649E-1,1.059063339E1,1.219856891E1
3.046168234E0,-4.594219685E0,5.838487148E-1,9.087940216E0,1.019992114E1
3.048543807E0,2.474178553E0,-1.244267747E-1,1.148076344E1,1.174499768E1
3.050919327E0,-2.392822653E-1,-5.264210105E-1,7.609176159E0,7.631116360E0
3.053294900E0,-3.699303865E0,-3.589234054E-1,1.166740322E1,1.224507954E1
3.055670421E0,6.321837425E0,-4.737788737E-1,9.858428955E0,1.172086670E1
3.058045942E0,-6.029912949E0,6.843472719E-1,8.944371223E0,1.080879077E1
3.060421515E0,3.201596737E0,-3.254238665E-1,1.138504982E1,1.183112344E1
3.062797036E0,-1.880758643E0,-6.317051649E-1,8.116454124E0,8.355425306E0
3.065172609E0,-1.426122308E0,-3.684946895E-1,1.213161087E1,1.222070356E1
3.067548130E0,5.020142078E0,-2.201396823E-1,8.695517540E0,1.004302311E1
3.069923650E0,-6.675975323E0,6.125625968E-1,9.509077072E0,1.163470783E1
3.072299223E0,4.235296249E0,-7.178468108E-1,1.096391296E1,1.177541616E1
3.074674744E0,-3.067598581E0,-2.344966233E-1,8.863015175E0,9.381800878E0
3.077050317E0,5.742774159E-2,-2.249253243E-1,1.183490086E1,1.183717735E1
3.079425838E0,2.847458839E0,-1.052841991E-1,8.001599312E0,8.493803515E0
3.081801359E0,-6.575476646E0,-6.221338734E-2,1.026999474E1,1.219481675E1
3.084176932E0,5.474778175E0,-7.561319470E-1,1.089691448E1,1.221833364E1
3.086552452E0,-4.283152580E0,4.163511395E-1,8.877371788E0,9.865418094E0
3.088928025E0,1.024128079E0,-1.531406492E-1,1.153340530E1,1.157979828E1
3.091303546E0,6.891329288E-1,-5.647061467E-1,7.666603565E0,7.718199755E0
3.093679119E0,-5.044070244E0,-2.871387303E-1,1.133240795E1,1.240760103E1
3.096054640E0,6.010770321E0,-3.589234054E-1,1.011206818E1,1.176911673E1
3.098430161E0,-5.953342915E0,7.130611539E-1,8.690732002E0,1.055838865E1
3.100805734E0,2.053041935E0,-2.919243574E-1,1.151904774E1,1.170421556E1
3.103181255E0,-7.465606928E-1,-6.699903607E-1,7.953742504E0,8.016748703E0
3.105556827E0,-2.900100946E0,-1.100698411E-1,1.190668583E1,1.225527920E1
3.107932348E0,5.436492920E0,-2.775674164E-1,8.987442017E0,1.050745511E1
3.110307869E0,-6.886543751E0,7.800601721E-1,9.016156197E0,1.137207331E1
3.112683442E0,3.493520975E0,-7.609176040E-1,1.156211948E1,1.210232587E1
3.115058963E0,-1.550549030E0,-1.866401732E-1,8.547162056E0,8.688671709E0
3.117434536E0,-1.469193101E0,-1.052841991E-1,1.149512005E1,1.158910687E1
3.119810057E0,4.134797573E0,-2.105683982E-1,8.480163574E0,9.436846097E0
3.122185630E0,-6.666403770E0,1.004985496E-1,9.729216576E0,1.179443489E1
3.124561150E0,5.345565796E0,-6.939185858E-1,1.152383423E1,1.272223848E1
3.126936671E0,-3.019742250E0,2.727817893E-1,8.432307243E0,8.960862604E0
3.129312244E0,-1.004985496E-1,-5.742774159E-2,1.174397373E1,1.174454413E1
3.131687765E0,2.675175667E0,-7.178468108E-1,8.001599312E0,8.467435293E0
3.134063338E0,-5.312066078E0,-5.264209956E-2,1.089212894E1,1.211855149E1
3.136438859E0,6.116054535E0,-4.067798555E-1,1.071506023E1,1.234439584E1
3.138814432E0,-4.618147850E0,4.737788737E-1,8.547162056E0,9.726547959E0
3.141189952E0,1.086341500E0,-4.498506486E-1,1.169133186E1,1.175030826E1
3.143565473E0,1.756331801E0,-8.709874153E-1,8.183453560E0,8.415000454E0
3.145941046E0,-3.885943890E0,-8.614161611E-2,1.149990559E1,1.213902009E1
3.148316567E0,5.891129494E0,-3.397808075E-1,9.528220177E0,1.120749024E1
3.150692140E0,-6.001199245E0,3.349951804E-1,8.776873589E0,1.063767475E1
3.153067661E0,2.775674343E0,-9.379864931E-1,1.216032505E1,1.250830492E1
3.155443182E0,5.599204898E-1,-3.158525825E-1,8.461020470E0,8.485407545E0
3.157818755E0,-3.105883837E0,-4.785645381E-2,1.120319557E1,1.162585032E1
3.160194275E0,5.067998409E0,-2.536391914E-1,9.150154114E0,1.046299484E1
3.162569848E0,-6.427121639E0,5.264209956E-2,9.265008926E0,1.127612762E1
3.164945369E0,4.460221291E0,-8.135597110E-1,1.201675510E1,1.284359204E1
3.167320942E0,-1.445264935E0,-3.349951655E-2,8.073383331E0,8.201794399E0
3.169696463E0,-2.254039049E0,-1.914258115E-2,1.153819084E1,1.175631347E1
3.172071932E0,4.182653904E0,-8.470591903E-1,8.685946465E0,9.677694402E0
3.174447557E0,-5.910272121E0,2.009970993E-1,1.029870892E1,1.187582089E1
3.176823077E0,5.197210789E0,-3.972085714E-1,1.107398319E1,1.223935776E1
3.179198650E0,-3.550948858E0,3.254238665E-1,8.154739380E0,8.900275998E0
3.181574171E0,-1.019342422E0,-3.302095234E-1,1.171525955E1,1.176415758E1
3.183949692E0,3.555734396E0,-8.949156404E-1,8.623732567E0,9.370852922E0
3.186325265E0,-5.235496044E0,2.488535494E-1,1.067677498E1,1.189394261E1
3.188700786E0,5.211567879E0,-1.914258152E-1,1.016471100E1,1.142446643E1
3.191076359E0,-5.326423168E0,3.014956415E-1,8.461020470E0,1.000252722E1
3.193451880E0,1.000199914E0,-8.853443861E-1,1.204068375E1,1.211454909E1
3.195827452E0,2.450250387E0,-2.440679073E-1,8.614161491E0,8.959189378E0
3.198202973E0,-4.809573650E0,2.392822653E-1,1.048056316E1,1.153392643E1
3.200578494E0,4.876572609E0,-9.571290761E-2,9.686145782E0,1.084488550E1
3.202954067E0,-5.915057659E0,-5.742774159E-2,8.839086533E0,1.063581947E1
3.205329588E0,3.263810158E0,-6.939185858E-1,1.238046455E1,1.282224170E1
3.207705161E0,3.062812984E-1,-8.614161611E-2,7.791030407E0,7.797524185E0
3.210080682E0,-4.110869408E0,2.057827413E-1,1.118405342E1,1.191740931E1
3.212456202E0,5.048855782E0,-8.997012973E-1,9.303294182E0,1.062316760E1
3.214831775E0,-5.603990555E0,2.919243574E-1,9.767501831E0,1.126472467E1
3.217207296E0,4.388436794E0,-4.689932466E-1,1.152383423E1,1.234006027E1
3.219582869E0,-1.885544300E0,1.052841991E-1,7.795815945E0,8.021290938E0
3.221958390E0,-2.794816732E0,-3.780659735E-1,1.149512005E1,1.183603478E1
3.224333911E0,5.359922886E0,-9.954141974E-1,9.355937004E0,1.082835075E1
3.226709484E0,-5.541777134E0,3.062812984E-1,9.901499748E0,1.135098231E1
3.229085005E0,4.642076015E0,-3.541377485E-1,1.083948612E1,1.179698024E1
3.231460577E0,-3.536591768E0,-2.919243574E-1,8.140382767E0,8.880232697E0
3.233836098E0,-5.216353536E-1,-7.082754970E-1,1.225125217E1,1.228279030E1
3.236211671E0,4.594219685E0,-4.498506486E-1,8.791230202E0,9.929498909E0
3.238587192E0,-5.690132141E0,2.871387303E-1,9.949356079E0,1.146515324E1
3.240962713E0,4.742574692E0,-4.307080805E-1,1.038006496E1,1.142030091E1
3.243338286E0,-4.311866283E0,-3.062812984E-1,8.705088615E0,9.719288394E0
3.245713807E0,1.842473388E0,-6.652047038E-1,1.242353535E1,1.257702016E1
3.248089380E0,2.340180635E0,-2.775674164E-1,7.891529083E0,8.235880059E0
3.250464900E0,-5.412564754E0,-7.178468257E-2,1.061456108E1,1.191511297E1
3.252840473E0,5.436492920E0,-8.901300430E-1,1.033220863E1,1.170907007E1
3.255215994E0,-4.642076015E0,2.536391914E-1,9.279366493E0,1.037881713E1
3.257591515E0,2.876172781E0,-4.163511395E-1,1.163390350E1,1.199138978E1
3.259967088E0,-3.349951655E-2,-9.571290761E-2,7.791030407E0,7.791690316E0
3.262342609E0,-4.302295208E0,-4.594219327E-1,1.114576817E1,1.195612649E1
3.264718182E0,6.082555294E0,-7.369893789E-1,1.002592659E1,1.174988665E1
3.267093702E0,-5.685346603E0,5.312066078E-1,9.236295700E0,1.085884454E1
3.269469223E0,3.469592810E0,-4.498506486E-1,1.128455162E1,1.181446339E1
3.271844796E0,-2.009970903E0,-3.254238665E-1,8.030312538E0,8.284431374E0
3.274220317E0,-1.942971945E0,-3.062812984E-1,1.196889877E1,1.212944706E1
3.276595890E0,5.383851051E0,-3.158525825E-1,9.064012527E0,1.054712938E1
3.278971411E0,-6.364908218E0,5.072783828E-1,9.298508644E0,1.127970084E1
3.281346984E0,4.086941242E0,-6.364908218E-1,1.111226845E1,1.185709574E1
3.283722505E0,-3.029313564E0,-1.579262912E-1,8.618947029E0,9.137172937E0
3.286098025E0,3.493520916E-1,7.657032460E-2,1.215553856E1,1.216079880E1
3.288473598E0,3.096312523E0,-2.775674164E-1,7.814958572E0,8.410575034E0
3.290849119E0,-6.173482418E0,-2.440679073E-1,1.039442158E1,1.209195825E1
3.293224692E0,5.608776093E0,-4.019941986E-1,1.085862923E1,1.222823770E1
3.295600213E0,-4.048655987E0,7.561319470E-1,8.920442581E0,9.825357330E0
3.297975734E0,1.071984529E0,-8.518448472E-1,1.143290615E1,1.151460523E1
3.300351307E0,1.435693622E0,-4.642075896E-1,8.063812256E0,8.203765779E0
3.302726827E0,-4.642076015E0,7.657032460E-2,1.129890823E1,1.221556630E1
3.305102400E0,6.015556335E0,-4.977070987E-1,9.896714211E0,1.159222078E1
3.307477921E0,-5.546562672E0,5.120640397E-1,8.982656479E0,1.056951676E1
3.309853494E0,2.603390932E0,-7.609176040E-1,1.177268696E1,1.208109259E1
3.312229015E0,-4.881358147E-1,-2.440679073E-1,8.111668587E0,8.130006948E0
3.314604536E0,-2.904886723E0,-2.871387303E-1,1.172004509E1,1.207809060E1
3.316980109E0,5.575276852E0,-3.732803464E-1,9.413364410E0,1.094689361E1
3.319355630E0,-6.436692715E0,3.972085714E-1,9.150154114E0,1.119437841E1
3.321731202E0,3.708875179E0,-8.470591903E-1,1.143769264E1,1.205379929E1
3.324106723E0,-1.938186288E0,-3.349951804E-1,8.484949112E0,8.709945424E0
3.326482244E0,-1.071984529E0,-8.614161611E-2,1.188275719E1,1.193132388E1
3.328857817E0,4.019941807E0,-2.727817893E-1,8.417949677E0,9.332535496E0
3.331233338E0,-6.680760860E0,-9.092725813E-2,9.743574142E0,1.181431634E1
3.333608911E0,5.039284706E0,-6.891329288E-1,1.139462185E1,1.247824914E1
3.335984432E0,-3.220739365E0,1.531406492E-1,8.652446747E0,9.233712624E0
3.338359952E0,9.092725813E-2,-2.105683982E-1,1.170090294E1,1.170315070E1
3.340735525E0,2.215753794E0,-6.891329288E-1,7.939385414E0,8.271536122E0
3.343111046E0,-5.752345562E0,-2.249253243E-1,1.071506023E1,1.216357623E1
3.345486567E0,6.096911907E0,-3.206382394E-1,1.091127110E1,1.250323880E1
3.347862140E0,-5.067998409E0,7.178468108E-1,8.298309326E0,9.749966646E0
3.350237713E0,9.619147182E-1,-1.153340459E0,1.157169056E1,1.166874014E1
3.352613234E0,9.092726111E-1,-4.450650215E-1,8.417949677E0,8.478604621E0
3.354988755E0,-3.847658873E0,6.460621357E-1,1.143290615E1,1.208028220E1
3.357364327E0,5.245067120E0,-1.014556766E0,9.073583603E0,1.052948118E1
3.359739848E0,-6.135197163E0,1.196411327E-1,9.207581520E0,1.106501313E1
3.362115421E0,3.426522017E0,8.614161611E-2,1.221775246E1,1.268944241E1
3.364490942E0,-7.896314859E-1,2.871387079E-2,7.432106972E0,7.473992000E0
3.366866463E0,-3.278167009E0,-9.092726111E-1,1.143769264E1,1.193289439E1
3.369242036E0,5.460421085E0,-3.062812984E-1,9.403793335E0,1.087848040E1
3.371617557E0,-6.269195557E0,1.205982566E0,9.327222824E0,1.130284444E1
3.373993130E0,3.804588079E0,-7.944171429E-1,1.111226845E1,1.177236166E1
3.376368650E0,-2.053041935E0,-2.823530734E-1,8.528019905E0,8.776208062E0
3.378744171E0,-1.038485050E0,-8.135596663E-2,1.179661560E1,1.184251703E1
3.381119744E0,4.091726780E0,-2.249253243E-1,8.221738815E0,9.186392578E0
3.383495265E0,-6.293123722E0,1.052841991E-1,9.820143700E0,1.166403503E1
3.385870838E0,5.273781300E0,-3.924229145E-1,1.141854954E1,1.258372117E1
3.388246359E0,-3.464807272E0,3.158525825E-1,8.106883049E0,8.821916178E0
3.390621932E0,-4.785645287E-3,-4.833501875E-1,1.168654537E1,1.169653765E1
3.392997452E0,2.900100946E0,-4.929214716E-1,8.470592499E0,8.966855322E0
3.395372973E0,-4.881358147E0,2.584248483E-1,1.080120182E1,1.185581720E1
3.397748546E0,5.651846886E0,-2.201396823E-1,1.007856941E1,1.155722268E1
3.400124067E0,-5.192425251E0,1.100698411E-1,8.437092781E0,9.907468393E0
3.402499640E0,1.789831281E0,-6.460621357E-1,1.215075302E1,1.229884919E1
3.404875161E0,1.631905079E0,-3.062812984E-1,8.355736732E0,8.519111383E0
3.407250682E0,-3.996013880E0,5.264209956E-2,1.089691448E1,1.160662067E1
3.409626255E0,5.149354458E0,-2.823530734E-1,9.466006279E0,1.077964978E1
3.412001723E0,-5.996413708E0,8.614161611E-2,9.159725189E0,1.094828586E1
3.414377348E0,3.742374659E0,-6.843472719E-1,1.215075302E1,1.273241918E1
3.416752869E0,-3.589234054E-1,3.828516230E-2,7.886743546E0,7.894999399E0
3.419128442E0,-3.211168051E0,2.392822690E-2,1.128933716E1,1.173717625E1
3.421503963E0,4.718646049E0,-7.944171429E-1,8.949156761E0,1.014810947E1
3.423879484E0,-5.982056618E0,1.579262912E-1,9.820143700E0,1.149978975E1
3.426255057E0,4.910071850E0,-4.019941986E-1,1.152861977E1,1.253712402E1
3.428630577E0,-2.876172781E0,3.972085714E-1,7.987242222E0,8.498598874E0
3.431006150E0,-1.995614052E0,-4.354937077E-1,1.149512005E1,1.167518373E1
3.433381671E0,4.077369690E0,-7.896314859E-1,8.877371788E0,9.800826054E0
3.435757192E0,-5.441278458E0,3.780659735E-1,1.048056316E1,1.181493332E1
3.438132765E0,4.986642361E0,-2.632105052E-1,1.038963604E1,1.152737693E1
3.440508286E0,-4.867001057E0,1.531406492E-1,8.202595711E0,9.539063253E0
3.442883755E0,1.148554832E-1,-7.513462901E-1,1.205025482E1,1.207420202E1
3.445259380E0,2.981456995E0,-3.254238665E-1,8.638090134E0,9.143937208E0
3.447634900E0,-5.125426292E0,2.105683982E-1,1.043749237E1,1.162994328E1
3.450010473E0,4.709074974E0,-6.221338734E-2,9.915857315E0,1.097740789E1
3.452385994E0,-5.824130535E0,3.349951655E-2,8.638090134E0,1.041816778E1
3.454761567E0,2.550748825E0,-6.699903607E-1,1.249053383E1,1.276591720E1
3.457137088E0,8.183453679E-1,-2.871387079E-2,7.714460373E0,7.757796883E0
3.459512609E0,-4.503292084E0,1.292124242E-1,1.093998528E1,1.183129804E1
3.461888182E0,4.871787071E0,-6.604190469E-1,9.518648148E0,1.071331532E1
3.464263702E0,-5.666203976E0,3.158525825E-1,9.456435204E0,1.102858999E1
3.466639275E0,3.986442566E0,-3.541377485E-1,1.173440266E1,1.239811855E1
3.469014796E0,-1.670190215E0,1.483550072E-1,7.637889862E0,7.819776602E0
3.471390369E0,-3.182454109E0,-1.770688742E-1,1.144247818E1,1.187811746E1
3.473765890E0,5.101497650E0,-7.657032609E-1,9.312865257E0,1.064617486E1
3.476141411E0,-5.565705299E0,6.125625968E-1,9.834501266E0,1.131678946E1
3.478516984E0,4.441078663E0,-2.775674164E-1,1.095434189E1,1.182361322E1
3.480892505E0,-3.440878868E0,-1.770688742E-1,7.963313580E0,8.676713890E0
3.483268077E0,-8.327022791E-1,-4.307080805E-1,1.201675510E1,1.205326951E1
3.485643598E0,4.474578381E0,-3.014956415E-1,8.910871506E0,9.975789808E0
3.488019119E0,-5.656632900E0,3.924229145E-1,9.887143135E0,1.139767919E1
3.490394692E0,4.666004181E0,-4.259224236E-1,1.022213840E1,1.124478183E1
3.492770213E0,-4.584648132E0,-2.392822690E-2,8.757730484E0,9.885211899E0
3.495145786E0,1.942971945E0,-3.684946895E-1,1.246660614E1,1.262248775E1
3.497521307E0,1.923829436E0,1.962114573E-1,7.776673794E0,8.013505720E0
3.499896827E0,-5.331208706E0,-3.397808075E-1,1.048056316E1,1.176347914E1
3.502272400E0,5.407779217E0,-5.312066078E-1,1.027478027E1,1.162313926E1
3.504647869E0,-4.895715237E0,4.019941986E-1,9.183652878E0,1.041485032E1
3.507023494E0,3.024527788E0,-2.440679073E-1,1.157169056E1,1.196291603E1
3.509399015E0,-7.561319470E-1,-2.871387079E-2,7.733603001E0,7.770532503E0
3.511774588E0,-3.862015724E0,-5.790630579E-1,1.136590767E1,1.201808373E1
3.514150109E0,5.838487148E0,-6.029912829E-1,9.786644936E0,1.141183376E1
3.516525577E0,-5.608776093E0,9.619147182E-1,9.370293617E0,1.096293992E1
3.518901202E0,3.493520975E0,-4.929214716E-1,1.095912743E1,1.151304192E1
3.521276723E0,-2.708675146E0,-5.407779217E-1,8.149953842E0,8.605295430E0
3.523652296E0,-1.081555843E0,-1.435693540E-2,1.221775246E1,1.226553889E1
3.526027817E0,4.713860512E0,-1.244267747E-1,8.532805443E0,9.749088761E0
3.528403338E0,-6.293123722E0,-2.967100143E-1,9.638289452E0,1.151468917E1
3.530778911E0,4.800002098E0,-3.445664644E-1,1.114098263E1,1.213590706E1
3.533154432E0,-3.881158352E0,3.014956415E-1,8.327022552E0,9.192039728E0
3.535530005E0,7.992027402E-1,-2.919243574E-1,1.218425274E1,1.221392483E1
3.537905525E0,2.124826431E0,-5.455635786E-1,7.934599876E0,8.232278067E0
3.540281046E0,-5.302495003E0,-2.919243574E-1,1.075813103E1,1.199746041E1
3.542656619E0,5.436492920E0,-5.359922647E-1,1.031306553E1,1.167056398E1
3.545032140E0,-4.843072891E0,5.647061467E-1,9.025727272E0,1.025855744E1
3.547407713E0,2.258824587E0,-3.684946895E-1,1.171047401E1,1.193202743E1
3.549783234E0,-1.100698411E-1,-6.604190469E-1,7.618747234E0,7.648109447E0
3.552158755E0,-3.857230186E0,-2.775674164E-1,1.159561825E1,1.222348686E1
3.554534327E0,5.934200287E0,-7.034898400E-1,9.690931320E0,1.138524400E1
3.556909848E0,-5.948556900E0,5.982056856E-1,9.284152031E0,1.104258385E1
3.559285421E0,3.364308596E0,-3.254238665E-1,1.144726372E1,1.193584181E1
3.561660942E0,-2.297109842E0,-5.934200287E-1,7.862815380E0,8.212960895E0
3.564036515E0,-1.627119422E0,-4.929214716E-1,1.216989613E1,1.228807800E1
3.566412036E0,4.986642361E0,-3.972085714E-1,8.982656479E0,1.028165814E1
3.568787557E0,-6.340980053E0,2.967100143E-1,9.480362892E0,1.140935342E1
3.571163130E0,4.192225456E0,-5.647061467E-1,1.087777138E1,1.167131344E1
3.573538650E0,-3.641875982E0,-3.206382394E-1,8.595019341E0,9.340258402E0
3.575914223E0,7.704889178E-1,-3.014956415E-1,1.239482117E1,1.242240494E1
3.578289744E0,2.431107759E0,1.435693540E-2,7.771887779E0,8.143262903E0
3.580665265E0,-6.015556335E0,-5.455635786E-1,1.044706345E1,1.206754707E1
3.583040838E0,5.441278458E0,-6.795616150E-1,1.061934662E1,1.195156215E1
3.585416359E0,-4.541577339E0,9.714859724E-1,9.126225471E0,1.024000494E1
3.587791932E0,1.861616015E0,-8.805587292E-1,1.133719349E1,1.152271470E1
3.590167452E0,-8.614161611E-2,-7.034898400E-1,7.881958008E0,7.913758928E0
3.592542973E0,-3.651447296E0,3.349951804E-1,1.185404301E1,1.240820796E1
3.594918546E0,5.536991596E0,-4.498506486E-1,9.035298347E0,1.060647245E1
3.597294067E0,-6.163911343E0,-1.100698411E-1,9.274580956E0,1.113659599E1
3.599669640E0,3.871587038E0,-3.541377485E-1,1.194497108E1,1.256172496E1
3.602045161E0,-2.134397745E0,1.100698411E-1,7.709674358E0,8.000427977E0
3.604420682E0,-1.713261008E0,-2.105683982E-1,1.178225899E1,1.190803213E1
3.606796255E0,4.503292084E0,-4.977070987E-1,8.896514893E0,9.983753261E0
3.609171775E0,-5.824130535E0,-4.785645381E-2,9.901499748E0,1.148749250E1
3.611547348E0,4.862215519E0,-3.014956415E-1,1.079641533E1,1.184460313E1
3.613922869E0,-3.900300980E0,1.244267747E-1,8.523234367E0,9.374078826E0
3.616298442E0,1.172483087E0,-1.435693651E-1,1.224168110E1,1.229853995E1
3.618673963E0,2.000399828E0,-4.259224236E-1,7.671389580E0,7.939346791E0
3.621049484E0,-4.948357105E0,-2.057827413E-1,1.082034397E1,1.189993396E1
3.623425057E0,5.848058701E0,-6.173482537E-1,1.028435135E1,1.184688955E1
3.625800577E0,-4.804787636E0,6.125625968E-1,9.054440498E0,1.026859824E1
3.628176150E0,2.780459881E0,-1.674975902E-1,1.177268696E1,1.209773412E1
3.630551671E0,-5.407779217E-1,-4.211367965E-1,7.479963779E0,7.511301825E0
3.632927192E0,-3.086741209E0,-4.594219327E-1,1.162433243E1,1.203595215E1
3.635302765E0,6.168696880E0,-5.455635786E-1,9.753145218E0,1.155310791E1
3.637678286E0,-5.728417397E0,5.599204898E-1,9.183652878E0,1.083825433E1
3.640053859E0,3.852444410E0,-1.196411327E-1,1.114098263E1,1.178885643E1
3.642429380E0,-2.833101988E0,-5.694918036E-1,8.102097511E0,8.602021383E0
3.644804952E0,-1.196411327E-1,-4.450650215E-1,1.240917778E1,1.241773289E1
3.647180473E0,4.383651257E0,-2.392822653E-1,8.504091263E0,9.570434815E0
3.649555994E0,-5.929414749E0,4.546363056E-1,1.004985523E1,1.167751016E1
3.651931567E0,4.819144726E0,-5.647061467E-1,1.035613632E1,1.143645961E1
3.654307088E0,-4.019941807E0,-1.914258152E-1,8.949156761E0,9.812440202E0
3.656682609E0,2.201396942E0,-4.067798555E-1,1.227517986E1,1.247764637E1
3.659058182E0,1.383051515E0,-3.828516230E-2,7.546962738E0,7.672740307E0
3.661433702E0,-5.130211830E0,4.785645287E-3,1.096391296E1,1.210481242E1
3.663809275E0,5.800201893E0,-9.523434043E-1,1.002592659E1,1.162189761E1
3.666184796E0,-4.943571568E0,4.594219327E-1,9.389435768E0,1.062127452E1
3.668560369E0,3.273381472E0,-2.297109663E-1,1.151426220E1,1.197272013E1
3.670935890E0,-1.521835208E0,-1.483550072E-1,7.580461979E0,7.733136196E0
3.673311411E0,-2.909672260E0,-5.694918036E-1,1.167697430E1,1.204749942E1
3.675686984E0,5.747560024E0,-5.407779217E-1,9.695717812E0,1.128422930E1
3.678062505E0,-5.905486107E0,4.785645306E-1,9.355937004E0,1.107417480E1
3.680438025E0,3.847658873E0,-1.531406492E-1,1.086820030E1,1.153020853E1
3.682813546E0,-3.498306751E0,-4.067798555E-1,8.355736732E0,9.067632344E0
3.685189119E0,1.962114573E-1,-4.307080805E-1,1.250489140E1,1.251384502E1
3.687564692E0,3.560520172E0,-1.818545163E-1,8.054241180E0,8.808017709E0
3.689940213E0,-6.096911907E0,4.546363056E-1,1.025563812E1,1.193972957E1
3.692315786E0,4.795216560E0,-5.886343718E-1,1.026999474E1,1.134959841E1
3.694691307E0,-4.508078098E0,3.349951655E-2,9.116654396E0,1.017041188E1
3.697066827E0,2.292324066E0,-3.876372576E-1,1.193539906E1,1.215971887E1
3.699442400E0,6.460621357E-1,-2.392822690E-2,7.604390144E0,7.631822738E0
3.701817921E0,-4.910071850E0,-8.614161611E-2,1.110269737E1,1.214026832E1
3.704193494E0,5.838487148E0,-8.231309652E-1,9.939785004E0,1.155702395E1
3.706569015E0,-5.350351334E0,5.264210105E-1,9.312865257E0,1.075327103E1
3.708944588E0,3.416950703E0,-2.009970993E-1,1.145204926E1,1.195263084E1
3.711320109E0,-2.038684845E0,-3.062812984E-1,7.642675400E0,7.915840536E0
3.713695630E0,-2.287538528E0,-5.742774606E-1,1.202154064E1,1.225071698E1
3.716071202E0,5.517848969E0,-4.737788737E-1,9.408578873E0,1.091753086E1
3.718446723E0,-5.934200287E0,4.450650215E-1,9.461220741E0,1.117709774E1
3.720822296E0,4.197010994E0,-1.962114573E-1,1.087298584E1,1.165655272E1
3.723197817E0,-3.598805189E0,-5.168496966E-1,8.264809608E0,9.029153352E0
3.725573338E0,7.274180651E-1,-5.407779217E-1,1.259581852E1,1.262838952E1
3.727948911E0,3.215953588E0,-2.967100143E-1,8.044670105E0,8.668743358E0
3.730324432E0,-5.819344521E0,2.201396823E-1,1.045663452E1,1.196889459E1
3.732700005E0,5.144568920E0,-9.140582681E-1,1.033699417E1,1.158255328E1
3.735075525E0,-4.388436794E0,5.264209956E-2,9.241081238E0,1.023028500E1
3.737451098E0,2.512463808E0,-4.163511395E-1,1.196411324E1,1.223216367E1
3.739826619E0,3.589234054E-1,-5.264209956E-2,7.542177200E0,7.550896246E0
3.742202140E0,-4.622933388E0,-6.029912829E-1,1.121276665E1,1.214336228E1
3.744577713E0,6.178267956E0,-9.044869542E-1,1.005942631E1,1.183981204E1
3.746953234E0,-5.422136307E0,4.402793646E-1,9.322437286E0,1.079357425E1
3.749328755E0,3.527020693E0,-2.488535494E-1,1.148076344E1,1.201289857E1
3.751704327E0,-2.335394859E0,-5.599204898E-1,7.704888821E0,8.070495142E0
3.754079848E0,-1.823330879E0,-7.034898400E-1,1.219861031E1,1.235417042E1
3.756455421E0,5.379065514E0,-4.211367965E-1,9.169296265E0,1.063897063E1
3.758830942E0,-6.111268997E0,5.407779217E-1,9.470791817E0,1.128432307E1
3.761206463E0,4.058227062E0,-3.062812984E-1,1.081077290E1,1.155144258E1
3.763582036E0,-3.570091486E0,-5.838487148E-1,8.427521706E0,9.171126138E0
3.765957557E0,7.609176040E-1,-4.546363056E-1,1.254317665E1,1.257445706E1
3.768333130E0,2.919243574E0,-2.057827413E-1,7.896314621E0,8.421170594E0
3.770708650E0,-6.044270039E0,3.014956415E-1,1.044227791E1,1.206918671E1
3.773084171E0,5.125426292E0,-9.188438654E-1,1.027956581E1,1.152318281E1
3.775459744E0,-4.417150497E0,2.201396823E-1,9.221938133E0,1.022760103E1
3.777835265E0,2.344966173E0,-3.110669553E-1,1.193061352E1,1.216286019E1
3.780210838E0,1.148554832E-1,1.244267747E-1,7.422535896E0,7.424467182E0
3.782586359E0,-4.613361835E0,-3.302095234E-1,1.107398319E1,1.200105202E1
3.784961932E0,5.996413708E0,-7.561319470E-1,1.004028416E1,1.171904513E1
3.787337452E0,-5.565705299E0,5.790630579E-1,9.236295700E0,1.079914570E1
3.789712973E0,3.321237803E0,-1.052841991E-1,1.132762241E1,1.180494536E1
3.792088546E0,-2.306680918E0,-3.780659735E-1,7.819744587E0,8.161624602E0
3.794464067E0,-1.765903115E0,-4.211367965E-1,1.210289669E1,1.223829556E1
3.796839640E0,5.106283665E0,-2.775674164E-1,9.049654961E0,1.039458664E1
3.799215161E0,-6.235695839E0,6.029912829E-1,9.499505997E0,1.137928448E1
3.801590682E0,4.067798615E0,-1.722832322E-1,1.078205872E1,1.152516626E1
3.803966255E0,-3.637090445E0,-4.019941986E-1,8.456234932E0,9.214007568E0
3.806341775E0,7.369893789E-1,-3.924229145E-1,1.241874981E1,1.244678657E1
3.808717348E0,2.694318295E0,-2.153540403E-1,7.834101200E0,8.287271568E0
3.811092869E0,-6.020341873E0,4.307080805E-2,1.050927734E1,1.211161763E1
3.813468390E0,5.245067120E0,-6.604190469E-1,1.047577763E1,1.173408707E1
3.815843963E0,-4.503292084E0,3.780659735E-1,9.068798065E0,1.013240701E1
3.818219484E0,2.244467735E0,-2.967100143E-1,1.162433243E1,1.184275207E1
3.820595057E0,-1.100698411E-1,-5.120640397E-1,7.432106972E0,7.450539510E0
3.822970577E0,-4.086941242E0,-4.211367965E-1,1.168654537E1,1.238772730E1
3.825346098E0,6.020341873E0,-3.254238665E-1,9.848857880E0,1.154774517E1
3.827721671E0,-5.919843197E0,8.949156404E-1,9.001798630E0,1.081100347E1
3.830097192E0,3.019742250E0,-1.172483087E0,1.108355427E1,1.154723928E1
3.832472765E0,-2.239681959E0,-3.445664644E-1,8.456234932E0,8.754587972E0
3.834848286E0,-7.465606928E-1,4.019941986E-1,1.222253799E1,1.225191361E1
3.837223807E0,3.948157310E0,-6.843472719E-1,8.078168869E0,9.017377092E0
3.839599380E0,-6.317051888E0,-4.737788737E-1,1.015035343E1,1.196491896E1
3.841974900E0,5.087141037E0,1.148554832E-1,1.116012478E1,1.226542216E1
3.844350473E0,-4.182653904E0,3.158525825E-1,8.054241180E0,9.081032845E0
3.846725994E0,7.800601721E-1,-1.220339537E0,1.199282742E1,1.207996821E1
3.849101515E0,1.947757602E0,-4.211367965E-1,8.221738815E0,8.459793439E0
3.851477088E0,-4.871787071E0,9.379864931E-1,1.128933716E1,1.233139333E1
3.853852609E0,5.221138954E0,-1.220339537E0,9.092725754E0,1.055590745E1
3.856228182E0,-5.474778175E0,1.148554832E-1,9.571290970E0,1.102705757E1
3.858603702E0,3.531806231E0,-9.571290575E-3,1.194975662E1,1.246075560E1
3.860979275E0,-1.454836130E0,1.004985496E-1,7.149754047E0,7.296960399E0
3.863354796E0,-3.225524902E0,-1.038485050E0,1.177268696E1,1.225065795E1
3.865730317E0,5.661418438E0,-3.828516304E-1,9.628718376E0,1.117633445E1
3.868105890E0,-5.800201893E0,1.081555843E0,9.604789734E0,1.127227088E1
3.870481411E0,3.699303865E0,-1.148554921E0,1.024606609E1,1.095380746E1
3.872856984E0,-3.483949661E0,-1.435693651E-1,9.025727272E0,9.675860179E0
3.875232505E0,9.044869542E-1,4.929214716E-1,1.227039433E1,1.231355534E1
3.877608025E0,2.612962246E0,-5.455635786E-1,7.432106972E0,7.896925057E0
3.879983598E0,-5.493920803E0,-7.657032609E-1,1.086341476E1,1.219767386E1
3.882359119E0,5.699703693E0,5.120640397E-1,1.061934662E1,1.206314032E1
3.884734692E0,-5.048855782E0,6.029912829E-1,8.408378601E0,9.826259405E0
3.887110213E0,2.239681959E0,-1.339980721E0,1.163868904E1,1.192773265E1
3.889485734E0,1.674975902E-1,-1.627119333E-1,8.327022552E0,8.330296226E0
3.891861307E0,-2.938386202E0,7.561319470E-1,1.165304661E1,1.204156735E1
3.894236827E0,4.981856823E0,-7.848458290E-1,8.398807526E0,9.796675366E0
3.896612348E0,-5.690132141E0,-3.493520916E-1,9.973284721E0,1.148764810E1
3.898987921E0,4.819144726E0,3.732803464E-1,1.151426220E1,1.248766304E1
3.901363442E0,-3.713660717E0,4.019941986E-1,7.417750359E0,8.305172824E0
3.903739015E0,-2.775674164E-1,-1.071984529E0,1.200718403E1,1.205813679E1
3.906114536E0,3.507878065E0,-2.679961324E-1,8.829515457E0,9.504597501E0
3.908490109E0,-4.728217602E0,7.465606928E-1,1.071984577E1,1.174003782E1
3.910865630E0,4.800002098E0,-6.460621357E-1,8.872586250E0,1.010842239E1
3.913241150E0,-5.460421085E0,-2.871387303E-1,9.274580956E0,1.076645248E1
3.915616723E0,3.905086517E0,5.264210105E-1,1.257188988E1,1.317494724E1
3.917992244E0,-1.167697430E0,-6.221338734E-2,7.054041386E0,7.150306823E0
3.920367817E0,-3.148954630E0,-1.134197950E0,1.148076344E1,1.195868928E1
3.922743338E0,5.316852093E0,1.483550072E-1,9.422935486E0,1.082047312E1
3.925118859E0,-5.551348686E0,6.412764788E-1,9.911071777E0,1.137796342E1
3.927494432E0,4.106083870E0,-7.657032609E-1,1.012164021E1,1.094960395E1
3.929869952E0,-3.766302824E0,-3.014956415E-1,8.786444664E0,9.564389495E0
3.932245525E0,1.091127157E0,5.934200287E-1,1.250489140E1,1.256642410E1
3.934620734E0,1.521835208E0,-3.302095234E-1,7.216753006E0,7.382854778E0
