"Time (s)","Acceleration x (m/s^2)","Acceleration y (m/s^2)","Acceleration z (m/s^2)","Absolute acceleration (m/s^2)"
4.808493000E-3,3.857230186E0,-6.843472719E-1,9.456435204E0,1.023575706E1
7.183962000E-3,-5.149354458E0,3.110669553E-1,9.265008926E0,1.060438609E1
9.559431000E-3,3.421736479E0,-9.906286001E-1,1.106919765E1,1.162827426E1
1.193536800E-2,-1.875972986E0,-4.642075896E-1,8.336593628E0,8.557660700E0
1.431099300E-2,-2.780459881E0,-1.914258152E-1,1.118405342E1,1.152608572E1
1.668656600E-2,4.857429981E0,-2.823530734E-1,1.023649502E1,1.133402751E1
1.906213900E-2,-5.245067120E0,-5.264209956E-2,8.628518105E0,1.009776336E1
2.143771200E-2,1.607976794E0,-1.019342422E0,1.130848026E1,1.146762287E1
2.381328500E-2,1.363908887E0,-5.551348329E-1,8.805587769E0,8.927866379E0
2.618885800E-2,-4.350151539E0,2.967100143E-1,1.002114105E1,1.092863776E1
2.856443100E-2,4.264009953E0,-3.062812984E-1,1.087777138E1,1.168766441E1
3.094005600E-2,-4.201796532E0,-4.546363056E-1,8.063812256E0,9.104221898E0
3.331562900E-2,-6.556333899E-1,-5.407779217E-1,1.160997581E1,1.164104095E1
3.569120200E-2,4.149154663E0,-4.881358147E-1,9.633503914E0,1.050038850E1
3.806677500E-2,-5.316852093E0,1.435693651E-1,8.997013092E0,1.045159188E1
4.044234800E-2,3.144168854E0,-7.034898400E-1,1.118405342E1,1.163888941E1
4.281792000E-2,-1.679761529E0,-4.067798555E-1,8.288737297E0,8.467008600E0
4.519349300E-2,-2.646461725E0,-3.349951655E-2,1.117448139E1,1.148363689E1
4.756906600E-2,4.795216560E0,-3.397808075E-1,1.016949654E1,1.124847601E1
4.994469100E-2,-5.192425251E0,-3.062812984E-1,8.484949112E0,9.952358999E0
5.232026400E-2,1.584048629E0,-5.503492355E-1,1.160040379E1,1.172098385E1
5.469583700E-2,1.746760488E0,-5.551348329E-1,8.762516975E0,8.952153407E0
5.707141000E-2,-4.555934429E0,2.344966233E-1,9.829715729E0,1.083673560E1
5.944698300E-2,4.096512318E0,-7.752745152E-1,1.066720295E1,1.145302067E1
6.182255600E-2,-3.780659676E0,-4.067798555E-1,8.456234932E0,9.271826501E0
6.419812900E-2,-4.689932466E-1,-3.254238665E-1,1.180618668E1,1.181997882E1
6.657375400E-2,4.192225456E0,-3.493520916E-1,9.317651749E0,1.022327909E1
6.894932700E-2,-5.498706341E0,9.092725813E-2,8.973084450E0,1.052427117E1
7.132490000E-2,3.096312523E0,-1.062413216E0,1.116012478E1,1.163031634E1
7.370047300E-2,-1.186840057E0,-5.168496966E-1,8.633303642E0,8.729814128E0
7.607604500E-2,-2.670390129E0,3.349951655E-2,1.092084217E1,1.124263756E1
7.845161800E-2,4.579862595E0,-4.354937077E-1,1.017906761E1,1.117041689E1
8.082713900E-2,-5.288137913E0,-4.977070987E-1,8.422736168E0,9.957640257E0
8.320271200E-2,1.703689694E0,-5.599204898E-1,1.197846985E1,1.211196968E1
8.557838900E-2,2.287538528E0,-5.024927258E-1,8.642875671E0,8.954587167E0
8.795396200E-2,-4.814359188E0,7.178468257E-2,9.623932838E0,1.076119374E1
9.032953500E-2,3.881158352E0,-1.048056364E0,1.093041420E1,1.164627695E1
9.270510800E-2,-3.402593851E0,-3.828516304E-1,8.614161491E0,9.269735621E0
9.508068100E-2,-3.062812984E-1,-3.493520916E-1,1.170568848E1,1.171490494E1
9.745625400E-2,4.134797573E0,-4.307080805E-1,9.418149948E0,1.029483409E1
9.983182700E-2,-5.632704735E0,-1.722832322E-1,8.934800148E0,1.056350784E1
1.022074520E-1,3.206382275E0,-8.374879360E-1,1.146162033E1,1.193109442E1
1.045830250E-1,-5.216353536E-1,-6.652047038E-1,8.441878319E0,8.484097494E0
1.069585980E-1,-2.947957516E0,-3.349951655E-2,1.089212894E1,1.128406171E1
1.093341700E-1,4.378865242E0,-8.662018180E-1,1.006899738E1,1.101405805E1
1.117096910E-1,-4.905286312E0,-4.115654826E-1,8.834300995E0,1.011316439E1
1.140853160E-1,1.727617979E0,-5.120640397E-1,1.205025482E1,1.218423222E1
1.164608890E-1,2.627319336E0,-4.115654826E-1,8.647661209E0,9.047333167E0
1.188365140E-1,-5.010570526E0,1.052841991E-1,9.585647583E0,1.081672507E1
1.212120870E-1,3.929014683E0,-1.239482164E0,1.089691448E1,1.164973037E1
1.235876600E-1,-2.981456995E0,-5.120640397E-1,8.901300430E0,9.401300162E0
1.259632330E-1,-4.115654826E-1,-2.057827413E-1,1.152861977E1,1.153779903E1
1.283388060E-1,4.086941242E0,-4.689932466E-1,9.513862610E0,1.036516402E1
1.307143790E-1,-5.771488190E0,-2.775674164E-1,8.729017258E0,1.046818331E1
1.330899520E-1,3.086741209E0,-8.518448472E-1,1.167697430E1,1.210806920E1
1.354655250E-1,1.818545163E-1,-5.503492355E-1,8.719446182E0,8.738689666E0
1.378411500E-1,-3.426522017E0,-2.297109663E-1,1.047099209E1,1.101977747E1
1.402167230E-1,4.268795490E0,-9.092726111E-1,1.040877819E1,1.128680890E1
1.425922950E-1,-4.804787636E0,-3.397808075E-1,8.819944382E0,1.004952009E1
1.449678680E-1,1.598405480E0,-4.354937077E-1,1.202154064E1,1.213515530E1
1.473434410E-1,2.665604353E0,-4.642075896E-1,8.714659691E0,9.125033084E0
1.497190140E-1,-5.288137913E0,3.828516230E-2,9.399007797E0,1.078458232E1
1.520945870E-1,3.737588882E0,-1.143769264E0,1.115055370E1,1.181577872E1
1.544702120E-1,-2.493321180E0,-5.264210105E-1,8.891729355E0,9.249682184E0
1.568457850E-1,-1.038485050E0,-1.866401732E-1,1.136590767E1,1.141477739E1
1.592213580E-1,4.039084435E0,-6.173482537E-1,9.561718941E0,1.039816287E1
1.615969310E-1,-5.675775528E0,-3.780659735E-1,8.781659126E0,1.046302531E1
1.639725040E-1,3.053241730E0,-6.939185858E-1,1.199282742E1,1.239482624E1
1.663480770E-1,4.163511395E-1,-3.349951804E-1,8.408378601E0,8.425342767E0
1.687236500E-1,-3.967299938E0,-7.178468257E-2,1.025563812E1,1.099648740E1
1.710992230E-1,4.125226021E0,-1.129412293E0,1.046142101E1,1.130196405E1
1.734748480E-1,-4.340580463E0,-3.684946895E-1,9.049654961E0,1.004353932E1
1.758504200E-1,1.383051515E0,-3.397808075E-1,1.174875927E1,1.183476349E1
1.782259930E-1,2.842673302E0,-4.546363056E-1,8.757730484E0,9.218748771E0
1.806015660E-1,-5.651846886E0,-2.153540403E-1,9.174081802E0,1.077745459E1
1.829771390E-1,3.809373617E0,-8.374879360E-1,1.153819084E1,1.217959611E1
1.853527120E-1,-1.684547186E0,-3.972085714E-1,8.638090134E0,8.809771565E0
1.877283370E-1,-1.780260086E0,-3.732803464E-1,1.090648556E1,1.105712853E1
1.901039100E-1,4.010370731E0,-7.800601721E-1,9.801001549E0,1.061843673E1
1.924794830E-1,-5.316852093E0,-1.292124242E-1,8.963513374E0,1.042258049E1
1.948550560E-1,3.096312523E0,-5.647061467E-1,1.178704453E1,1.220001897E1
1.972306290E-1,8.039883971E-1,-4.019941986E-1,8.264809608E0,8.313547651E0
1.996062020E-1,-4.354937077E0,-3.493520916E-1,1.002592659E1,1.093648608E1
2.019817750E-1,4.321437836E0,-7.561319470E-1,1.092562866E1,1.177352633E1
2.043573480E-1,-3.637090445E0,-2.488535494E-1,8.872586250E0,9.592348084E0
2.067329730E-1,8.901300430E-1,-4.115654826E-1,1.146640587E1,1.150826578E1
2.091085450E-1,3.014956474E0,-8.662018180E-1,9.025727272E0,9.555313753E0
2.114841180E-1,-5.388636589E0,-9.092725813E-2,9.255437851E0,1.071021951E1
2.138596910E-1,4.067798615E0,-7.226324677E-1,1.148076344E1,1.220152090E1
2.162352640E-1,-1.287338614E0,-2.775674164E-1,8.542376518E0,8.643291095E0
2.186108370E-1,-2.344966173E0,-5.647061467E-1,1.075334454E1,1.102053438E1
2.209864100E-1,4.354937077E0,-8.279166222E-1,1.008814049E1,1.101914250E1
2.233619830E-1,-4.823930264E0,-1.339980662E-1,9.131011009E0,1.032780813E1
2.257376080E-1,2.914458036E0,-5.455635786E-1,1.163390350E1,1.200580759E1
2.281131810E-1,1.033699393E0,-7.704889178E-1,8.360522270E0,8.459345142E0
2.304887540E-1,-4.503292084E0,-3.254238665E-1,9.887143135E0,1.086927503E1
2.328643270E-1,4.402793884E0,-6.699903607E-1,1.110748291E1,1.196702376E1
2.352399000E-1,-3.326023579E0,-1.627119333E-1,8.925228119E0,9.526206222E0
2.376154730E-1,1.962114573E-1,-3.876372576E-1,1.126062298E1,1.126900135E1
2.399910450E-1,3.225524902E0,-1.038485050E0,9.049654961E0,9.663266373E0
2.423666180E-1,-5.441278458E0,-1.674975902E-1,9.245866776E0,1.072947432E1
2.447422430E-1,4.173082829E0,-6.029912829E-1,1.172004509E1,1.245542756E1
2.471178160E-1,-1.406979680E0,-2.584248483E-1,8.207381248E0,8.331115302E0
2.494933890E-1,-2.861815929E0,-4.115654826E-1,1.072941685E1,1.111214482E1
2.518689620E-1,4.244867325E0,-8.470591903E-1,1.015035343E1,1.103476700E1
2.542445350E-1,-4.642076015E0,-2.871387079E-2,9.178867340E0,1.028597588E1
2.566201080E-1,2.727817774E0,-4.977070987E-1,1.141854954E1,1.175040321E1
2.589957330E-1,8.422735929E-1,-7.609176040E-1,8.350951195E0,8.427740282E0
2.613713060E-1,-4.857429981E0,-1.531406492E-1,9.868000984E0,1.099979643E1
2.637468790E-1,4.498506546E0,-7.178468108E-1,1.119362450E1,1.208507735E1
2.661224520E-1,-3.239881754E0,-1.004985496E-1,8.819944382E0,9.396720313E0
2.684980250E-1,-2.344966233E-1,-4.546363056E-1,1.117448139E1,1.118618421E1
2.708735980E-1,3.148954630E0,-8.422735929E-1,9.198010445E0,9.758521210E0
2.732491700E-1,-5.393422127E0,7.657032460E-2,9.202795982E0,1.066706704E1
2.756247430E-1,4.153940201E0,-5.120640397E-1,1.154776192E1,1.228284308E1
2.780003680E-1,-1.607976794E0,-3.876372576E-1,8.188239098E0,8.353628645E0
2.803759410E-1,-3.043670416E0,-5.312066078E-1,1.061934662E1,1.105968502E1
2.827515140E-1,4.354937077E0,-5.455635786E-1,1.046620655E1,1.134921126E1
2.851270870E-1,-4.455435753E0,1.531406492E-1,9.049654961E0,1.008814228E1
2.875026600E-1,2.388036966E0,-2.967100143E-1,1.133240795E1,1.158508642E1
2.898781810E-1,9.188438654E-1,-8.997012973E-1,8.283951759E0,8.383173219E0
2.922538060E-1,-4.910071850E0,-1.818545163E-1,9.906285286E0,1.105786439E1
2.946293790E-1,4.862215519E0,-5.407779217E-1,1.132283688E1,1.233451318E1
2.970050040E-1,-3.239881754E0,9.571290575E-3,8.523234367E0,9.118248158E0
2.993805770E-1,-4.642075896E-1,-2.967100143E-1,1.116491032E1,1.117849488E1
3.017561500E-1,3.359523058E0,-8.901300430E-1,9.121439934E0,9.761116388E0
3.041317230E-1,-4.938786030E0,6.221338734E-2,9.456435204E0,1.066862900E1
3.065072950E-1,4.240081787E0,-5.359922647E-1,1.133719349E1,1.211600336E1
3.088828680E-1,-1.464407444E0,-5.599204898E-1,8.078168869E0,8.228901044E0
3.112584410E-1,-3.192025423E0,-3.924229145E-1,1.069113159E1,1.116437713E1
3.136340660E-1,4.756931305E0,-6.221339107E-1,1.057627583E1,1.161348597E1
3.160096390E-1,-4.264009953E0,1.292124242E-1,9.116654396E0,1.006537948E1
3.183852120E-1,2.139183521E0,-4.833501875E-1,1.112183952E1,1.133600670E1
3.207607850E-1,1.325623751E0,-9.284151793E-1,8.532805443E0,8.684929579E0
3.231363580E-1,-4.694717884E0,-5.264209956E-2,9.877572060E0,1.093661634E1
3.255119310E-1,4.910071850E0,-5.503492355E-1,1.112662506E1,1.217429567E1
3.278875040E-1,-3.335594654E0,-4.354937077E-1,8.456234932E0,9.100755776E0
3.302630770E-1,-6.795616150E-1,-6.412764788E-1,1.136112213E1,1.139947962E1
3.326387020E-1,3.680161238E0,-6.891329288E-1,9.346364975E0,1.006841741E1
3.350142750E-1,-4.881358147E0,1.722832322E-1,9.365508080E0,1.056267393E1
3.373898480E-1,3.828516245E0,-5.694918036E-1,1.127976608E1,1.192539225E1
3.397654200E-1,-1.454836130E0,-7.465606928E-1,8.044670105E0,8.209178895E0
3.421409930E-1,-3.278167009E0,-1.914258152E-1,1.085384369E1,1.133970659E1
3.445165660E-1,4.857429981E0,-7.417750359E-1,1.052363396E1,1.161428981E1
3.468921390E-1,-4.589433670E0,-1.674975902E-1,8.930013657E0,1.004171802E1
3.492677120E-1,1.775474429E0,-7.465606928E-1,1.136590767E1,1.152794515E1
3.516433370E-1,1.277767301E0,-6.412764788E-1,8.532805443E0,8.651745114E0
3.540189100E-1,-4.800002098E0,7.657032460E-2,1.020299530E1,1.127594769E1
3.563944830E-1,4.675575256E0,-5.024927258E-1,1.100219822E1,1.196502689E1
3.587700560E-1,-3.651447296E0,-5.359922647E-1,8.413164139E0,9.187039016E0
3.611456290E-1,-9.762716293E-1,-5.647061467E-1,1.155733299E1,1.161223257E1
3.635212020E-1,3.651447296E0,-7.561319470E-1,9.466006279E0,1.017399026E1
3.658967750E-1,-5.091926575E0,2.392822653E-1,9.446864128E0,1.073444056E1
3.682724000E-1,3.598805189E0,-6.364908218E-1,1.122712421E1,1.180698257E1
3.706479730E-1,-1.904686809E0,-8.231309652E-1,8.126026154E0,8.386756076E0
3.730235450E-1,-3.196810961E0,-1.674975902E-1,1.119841003E1,1.164697570E1
3.753991180E-1,4.876572609E0,-4.642075896E-1,1.036570740E1,1.146491775E1
3.777746910E-1,-5.010570526E0,-8.135596663E-2,8.791230202E0,1.011919781E1
3.801502640E-1,1.622333765E0,-8.374879360E-1,1.138983536E1,1.153523742E1
3.825258370E-1,1.129412293E0,-6.173482537E-1,8.614161491E0,8.709791570E0
3.849013580E-1,-4.488935471E0,1.148554832E-1,1.015992451E1,1.110800610E1
3.872770350E-1,4.536791801E0,-4.115654826E-1,1.099741268E1,1.190356886E1
3.896526080E-1,-3.986442566E0,-4.977070987E-1,8.202595711E0,9.133565190E0
3.920281810E-1,-7.322037220E-1,-5.072783828E-1,1.148076344E1,1.151526737E1
3.944037540E-1,3.881158352E0,-6.987041831E-1,9.470791817E0,1.025901922E1
3.967793270E-1,-5.115854740E0,3.254238665E-1,9.312865257E0,1.063049057E1
3.991549000E-1,3.483949661E0,-8.087740541E-1,1.108833981E1,1.165089268E1
4.015304730E-1,-1.832902193E0,-6.125625968E-1,8.193024635E0,8.417862915E0
4.039060980E-1,-2.837887764E0,-1.674975902E-1,1.135633659E1,1.170675204E1
4.062816700E-1,5.082355499E0,-3.637090325E-1,1.016949654E1,1.137458929E1
4.086572430E-1,-5.111069202E0,2.871387079E-2,8.676374435E0,1.006992186E1
4.110328160E-1,1.593619823E0,-1.158126116E0,1.127498055E1,1.144578816E1
4.134083890E-1,1.521835208E0,-5.647061467E-1,8.934800148E0,9.081053304E0
4.157839620E-1,-4.211368084E0,1.770688742E-1,9.987641335E0,1.084066206E1
4.181595350E-1,4.441078663E0,-3.876372576E-1,1.094955635E1,1.182227671E1
4.205351600E-1,-4.086941242E0,-6.364908218E-1,8.015955925E0,9.020186177E0
4.229107330E-1,-4.737788737E-1,-5.599204898E-1,1.168175983E1,1.170476357E1
4.252863060E-1,4.335794449E0,-6.843472719E-1,9.638289452E0,1.059075390E1
4.276618790E-1,-5.225924492E0,-4.785645287E-3,9.011369705E0,1.041705782E1
4.300374520E-1,3.431307554E0,-8.039883971E-1,1.123669529E1,1.177639970E1
4.324129730E-1,-1.574477315E0,-5.407779217E-1,8.216953278E0,8.383897706E0
4.347885980E-1,-2.603390932E0,-1.914258152E-1,1.129412270E1,1.159187197E1
4.371641700E-1,4.981856823E0,-5.503492355E-1,1.027956581E1,1.143640044E1
4.395397950E-1,-5.029713154E0,-4.977070987E-1,8.590232849E0,9.966836367E0
4.419153680E-1,1.727617979E0,-5.359922647E-1,1.175354481E1,1.189192025E1
4.442909410E-1,1.799402595E0,-6.843472719E-1,8.575876236E0,8.789302253E0
4.466665140E-1,-4.498506546E0,2.392822690E-2,9.911071777E0,1.088423068E1
4.490420870E-1,4.297509670E0,-9.236295223E-1,1.087298584E1,1.172789418E1
4.514176600E-1,-3.737588882E0,-4.642075896E-1,8.542376518E0,9.335805049E0
4.537932330E-1,-4.019941986E-1,-4.307080805E-1,1.183011532E1,1.184477679E1
4.561688060E-1,4.091726780E0,-4.594219327E-1,9.322437286E0,1.019122826E1
4.585444310E-1,-5.469992638E0,-1.100698411E-1,8.968298912E0,1.050539481E1
4.609200040E-1,3.254238844E0,-9.236295223E-1,1.128455162E1,1.178067346E1
4.632955770E-1,-1.363908887E0,-6.221339107E-1,8.504091263E0,8.635210841E0
4.656711500E-1,-2.617748022E0,-6.699903309E-2,1.122233772E1,1.152379961E1
4.680467230E-1,4.493721008E0,-4.737788737E-1,1.014078236E1,1.110195756E1
4.704222950E-1,-5.292923450E0,-4.929214716E-1,8.551948547E0,1.006945054E1
4.727978680E-1,1.765903115E0,-5.694918036E-1,1.197846985E1,1.212132314E1
4.751734930E-1,1.990828395E0,-5.072783828E-1,8.666803360E0,8.906975330E0
4.775490660E-1,-4.771288395E0,-4.785645381E-2,9.815358162E0,1.091369502E1
4.799246390E-1,4.015156269E0,-8.901300430E-1,1.091605663E1,1.166508053E1
4.823002120E-1,-3.766302824E0,-3.972085714E-1,8.566305161E0,9.366130242E0
4.846757850E-1,-2.823530734E-1,-3.541377485E-1,1.186361504E1,1.187225752E1
4.870513580E-1,3.890729666E0,-4.163511395E-1,9.298508644E0,1.008827976E1
4.894269310E-1,-5.656632900E0,-1.674975902E-1,8.973084450E0,1.060857181E1
4.918025040E-1,3.182454109E0,-7.369893789E-1,1.144726372E1,1.190424353E1
4.941781290E-1,-9.619147182E-1,-5.312066078E-1,8.523234367E0,8.593775914E0
4.965537020E-1,-2.790031195E0,-5.264209956E-2,1.095434189E1,1.130418734E1
4.989292750E-1,4.331008911E0,-7.034898400E-1,1.008335495E1,1.099666237E1
5.013048480E-1,-5.182853699E0,-3.206382394E-1,8.690732002E0,1.012391249E1
5.036804200E-1,1.856830359E0,-4.642075896E-1,1.199282742E1,1.214459621E1
5.060559930E-1,2.234896421E0,-3.397808075E-1,8.542376518E0,8.836425159E0
5.084315660E-1,-4.890929699E0,1.435693651E-1,9.705288887E0,1.086896673E1
5.108071910E-1,3.943371773E0,-1.162911773E0,1.079162979E1,1.154823875E1
5.131827640E-1,-3.345165968E0,-4.067798555E-1,8.800801277E0,9.423890297E0
5.155583370E-1,-1.004985496E-1,-1.435693651E-1,1.159561825E1,1.159694247E1
5.179339100E-1,3.967299938E0,-4.067798555E-1,9.260223389E0,1.008249353E1
5.203094830E-1,-5.766702652E0,-2.344966233E-1,8.762516975E0,1.049245214E1
5.226850560E-1,3.326023579E0,-7.369893789E-1,1.172961617E1,1.221431462E1
5.250606290E-1,-1.339980662E-1,-4.737788737E-1,8.504091263E0,8.518332590E0
5.274362020E-1,-3.067598581E0,-2.632105052E-1,1.047099209E1,1.091426205E1
5.298118270E-1,4.345366001E0,-8.135597110E-1,1.031785107E1,1.122506729E1
5.321874000E-1,-4.723432064E0,-2.344966233E-1,8.733802795E0,9.932024486E0
5.345629730E-1,2.043470621E0,-4.450650215E-1,1.179661560E1,1.198056738E1
5.369385450E-1,2.368894339E0,-4.546363056E-1,8.499305725E0,8.834961934E0
5.393141180E-1,-4.972285271E0,-3.637090325E-1,9.466006279E0,1.069865318E1
5.416896910E-1,4.216153622E0,-6.556333899E-1,1.130848026E1,1.208666755E1
5.440652640E-1,-2.718246460E0,-2.967100143E-1,8.556734085E0,8.983017247E0
5.464408370E-1,-5.838487148E-1,-2.679961324E-1,1.118883896E1,1.120726633E1
5.488164100E-1,3.905086517E0,-9.667003751E-1,9.399007797E0,1.022377415E1
5.511919830E-1,-5.292923450E0,-1.339980662E-1,9.078369141E0,1.050950905E1
5.535676080E-1,3.522234917E0,-6.221339107E-1,1.162433243E1,1.216216649E1
5.559431810E-1,6.221338734E-2,-3.349951804E-1,8.365307808E0,8.372243845E0
5.583187540E-1,-3.536591768E0,-2.009970993E-1,1.035613632E1,1.094520172E1
5.606943270E-1,4.484149456E0,-1.028913736E0,1.035135078E1,1.132769716E1
5.630699000E-1,-4.345366001E0,-3.780659735E-1,8.925228119E0,9.934024187E0
5.654454730E-1,1.890329838E0,-3.445664644E-1,1.184447193E1,1.199931616E1
5.678210980E-1,2.507678032E0,-5.503492355E-1,8.566305161E0,8.942757824E0
5.701966700E-1,-5.355136871E0,-3.780659735E-1,9.317651749E0,1.075356029E1
5.725722430E-1,4.082155228E0,-7.226324677E-1,1.154297638E1,1.226484785E1
5.749478160E-1,-2.072184324E0,-2.727817893E-1,8.666803360E0,8.915258732E0
5.773233890E-1,-1.268195987E0,-2.536391914E-1,1.104526901E1,1.112072936E1
5.796989620E-1,3.938585997E0,-9.858429432E-1,9.662218094E0,1.048059180E1
5.820745350E-1,-5.297709465E0,-1.435693651E-1,9.083154678E0,1.051617976E1
5.844501600E-1,3.445664644E0,-6.029912829E-1,1.174875927E1,1.225844801E1
5.868257330E-1,2.297109663E-1,-3.445664644E-1,8.322237015E0,8.332533955E0
5.892012540E-1,-4.139583111E0,-3.349951804E-1,1.026042366E1,1.106908595E1
5.915768790E-1,4.340580463E0,-8.518448472E-1,1.069591713E1,1.157449444E1
5.939524520E-1,-3.948157310E0,-3.349951804E-1,9.040083885E0,9.870323428E0
5.963280250E-1,1.210768223E0,-4.115654826E-1,1.155733299E1,1.162786703E1
5.987035980E-1,2.522035122E0,-7.609176040E-1,8.805587769E0,9.191193214E0
6.010791700E-1,-5.503491879E0,-1.674975902E-1,9.288937569E0,1.079818686E1
6.034547430E-1,4.082155228E0,-6.699903607E-1,1.151426220E1,1.223483193E1
6.058303680E-1,-1.933400750E0,-1.531406492E-1,8.599804878E0,8.815788930E0
6.082059410E-1,-2.014756680E0,-4.163511395E-1,1.087777138E1,1.107061439E1
6.105815140E-1,4.048655987E0,-8.997012973E-1,9.848857880E0,1.068649050E1
6.129570870E-1,-5.211567879E0,-1.387837082E-1,9.097511292E0,1.048543811E1
6.153326600E-1,3.163311481E0,-4.689932466E-1,1.181097221E1,1.223623957E1
6.177082330E-1,4.211367965E-1,-5.647061467E-1,8.269595146E0,8.299545356E0
6.200838060E-1,-4.575077057E0,-4.402793646E-1,1.005464077E1,1.105535965E1
6.224594310E-1,4.383651257E0,-6.891329288E-1,1.114576817E1,1.199664330E1
6.248350040E-1,-3.594019651E0,-1.004985496E-1,8.982656479E0,9.675494542E0
6.272105770E-1,5.934200287E-1,-1.962114573E-1,1.122233772E1,1.123972910E1
6.295861500E-1,2.646461725E0,-1.004985452E0,8.781659126E0,9.226662042E0
6.319617230E-1,-5.513063431E0,-1.579262912E-1,9.437292099E0,1.093074980E1
6.343372950E-1,4.331008911E0,-5.790630579E-1,1.172961617E1,1.251706226E1
6.367128680E-1,-1.756331801E0,-1.483550072E-1,8.322237015E0,8.506840749E0
6.390884410E-1,-2.727817774E0,-3.493520916E-1,1.074855900E1,1.109479866E1
6.414640660E-1,4.187439442E0,-7.944171429E-1,9.954142570E0,1.082823633E1
6.438396390E-1,-4.694717884E0,-2.392822690E-2,9.250652313E0,1.037378990E1
6.462152120E-1,2.823530674E0,-4.929214716E-1,1.143290615E1,1.178671456E1
6.485907850E-1,8.183453679E-1,-6.939185858E-1,8.283951759E0,8.353147245E0
6.509663580E-1,-4.819144726E0,-8.614161611E-2,9.911071777E0,1.102093100E1
6.533419310E-1,4.527220249E0,-6.843472719E-1,1.112183952E1,1.202744232E1
6.557175040E-1,-3.163311481E0,-6.221338734E-2,8.848658562E0,9.397295801E0
6.580930770E-1,-1.627119333E-1,-5.838487148E-1,1.110269737E1,1.111922855E1
6.604687020E-1,3.306880951E0,-8.135597110E-1,9.279366493E0,9.884532540E0
6.628442750E-1,-5.369493961E0,1.292124242E-1,9.245866776E0,1.069271779E1
6.652198480E-1,4.053441525E0,-5.168496966E-1,1.149990559E1,1.220431687E1
6.675954200E-1,-1.306481123E0,-5.359922647E-1,8.169096947E0,8.290254855E0
6.699709930E-1,-3.024527788E0,-4.307080805E-1,1.066241741E1,1.109145720E1
6.723465660E-1,4.460221291E0,-6.221339107E-1,1.039920712E1,1.133243721E1
6.747220870E-1,-4.407579422E0,3.828516230E-2,9.083154678E0,1.009613396E1
6.770977120E-1,2.129612207E0,-6.364908218E-1,1.130369377E1,1.152015024E1
6.794733370E-1,1.584048629E0,-7.896314859E-1,8.508877754E0,8.691014243E0
6.818489100E-1,-4.953142643E0,1.914258115E-2,9.762716293E0,1.094735666E1
6.842244830E-1,4.689932346E0,-7.513462901E-1,1.125583744E1,1.221694983E1
6.866000560E-1,-3.215953588E0,-2.871387303E-1,8.547162056E0,9.136672553E0
6.889756290E-1,-6.317051649E-1,-6.029912829E-1,1.119841003E1,1.123241012E1
6.913512020E-1,3.704089403E0,-6.939185858E-1,9.461220741E0,1.018412977E1
6.937267750E-1,-5.182853699E0,9.092725813E-2,9.241081238E0,1.059565112E1
6.961023480E-1,3.885943890E0,-5.934200287E-1,1.141854954E1,1.207625690E1
6.984779730E-1,-1.158126116E0,-7.609176040E-1,8.145168304E0,8.262204210E0
7.008535450E-1,-3.483949661E0,-1.387837082E-1,1.082991505E1,1.137735585E1
7.032291180E-1,4.627718925E0,-7.800601721E-1,1.031785107E1,1.133500450E1
7.056046910E-1,-4.383651257E0,-1.004985496E-1,9.126225471E0,1.012494393E1
7.079802640E-1,1.866401672E0,-7.369893789E-1,1.143290615E1,1.160766779E1
7.103558370E-1,1.430907965E0,-6.604190469E-1,8.322237015E0,8.470140486E0
7.127314100E-1,-5.072783947E0,1.244267747E-1,9.911071777E0,1.113453918E1
7.151070350E-1,4.680361271E0,-5.694918036E-1,1.122233772E1,1.217254971E1
7.174826080E-1,-3.378665686E0,-4.833501875E-1,8.394021988E0,9.061380378E0
7.198581810E-1,-7.992027402E-1,-4.450650215E-1,1.137547874E1,1.141220069E1
7.222337540E-1,3.364308596E0,-6.604190469E-1,9.255437851E0,9.870048402E0
7.246093270E-1,-5.173282623E0,2.297109663E-1,9.413364410E0,1.074369814E1
7.269849000E-1,3.723232031E0,-5.312066078E-1,1.131805134E1,1.192656377E1
7.293604730E-1,-1.579262972E0,-6.891329288E-1,8.068597794E0,8.250530049E0
7.317360450E-1,-3.388236761E0,-3.110669553E-1,1.088734341E1,1.140662779E1
7.341116180E-1,4.637290478E0,-6.460621357E-1,1.041356373E1,1.141771294E1
7.364872430E-1,-4.800002098E0,2.249253243E-1,9.006584167E0,1.020828927E1
7.388628160E-1,2.009970903E0,-6.652047038E-1,1.123190975E1,1.142971028E1
7.412383890E-1,7.082754970E-1,-8.135597110E-1,8.370093346E0,8.439312543E0
7.436139620E-1,-4.694717884E0,1.004985496E-1,1.041835022E1,1.142770744E1
7.459895350E-1,4.790431023E0,-3.732803464E-1,1.093519974E1,1.194429407E1
7.483651080E-1,-4.086941242E0,-1.244267747E-1,8.346165657E0,9.293925538E0
7.507406810E-1,-5.790630579E-1,-8.566305041E-1,1.122233772E1,1.126987106E1
7.531162020E-1,3.388236761E0,-5.886343718E-1,9.480362892E0,1.008483611E1
7.554918790E-1,-4.967499733E0,3.637090325E-1,9.384650230E0,1.062449988E1
7.578674520E-1,3.948157310E0,-3.397808075E-1,1.124148083E1,1.191949195E1
7.602430250E-1,-2.440679073E0,-6.795616150E-1,7.939385414E0,8.333820197E0
7.626185980E-1,-2.560320139E0,-5.886343718E-1,1.111705399E1,1.142324905E1
7.649941700E-1,5.101497650E0,-5.455635786E-1,1.048056316E1,1.166898119E1
7.673697430E-1,-4.957928658E0,2.823530734E-1,8.757730484E0,1.006770198E1
7.697453160E-1,2.153540373E0,-6.604190469E-1,1.122233772E1,1.144616763E1
7.721208890E-1,5.312066078E-1,-7.944171429E-1,8.427521706E0,8.481532948E0
7.744965140E-1,-3.895515203E0,5.264209956E-2,1.056191921E1,1.125752847E1
7.768720870E-1,5.072783947E0,-3.541377485E-1,1.076291656E1,1.190373570E1
7.792476600E-1,-4.206582069E0,-2.297109663E-1,8.350951195E0,9.353421069E0
7.816232330E-1,-1.579262912E-1,-9.714859724E-1,1.125583744E1,1.129878764E1
7.839987540E-1,3.761517286E0,-6.077769399E-1,9.561718941E0,1.029295265E1
7.863743790E-1,-4.723432064E0,3.445664644E-1,9.303294182E0,1.043938787E1
7.887499520E-1,3.890729666E0,-3.302095234E-1,1.129890823E1,1.195458669E1
7.911255770E-1,-2.435893536E0,-7.609176040E-1,7.929814339E0,8.330337830E0
7.935011500E-1,-2.124826431E0,-4.977070987E-1,1.130369377E1,1.151243209E1
7.958767230E-1,5.273781300E0,-5.742774606E-1,1.031785107E1,1.160175049E1
7.982522950E-1,-4.943571568E0,-9.571290761E-2,8.729017258E0,1.003213851E1
8.006278680E-1,2.249253273E0,-7.082754970E-1,1.139462185E1,1.163607329E1
8.030034410E-1,7.369893789E-1,-6.508477330E-1,8.379665375E0,8.437152832E0
8.053790140E-1,-3.838087559E0,1.196411327E-1,1.050449181E1,1.118434523E1
8.077545870E-1,4.804787636E0,-6.221339107E-1,1.068156052E1,1.172897139E1
8.101302120E-1,-4.216153622E0,-6.939185858E-1,8.374878883E0,9.401918457E0
8.125057850E-1,1.627119333E-1,-4.259224236E-1,1.193539906E1,1.194410464E1
8.148813580E-1,3.818944931E0,-5.455635786E-1,9.044869423E0,9.833190880E0
8.172569310E-1,-5.201996326E0,2.536391914E-1,9.241081238E0,1.060767086E1
8.196325040E-1,3.632304668E0,-1.158126116E0,1.112662506E1,1.176166139E1
8.220080770E-1,-2.187039852E0,-4.115654826E-1,8.494520187E0,8.781195971E0
8.243836500E-1,-1.856830359E0,-1.770688742E-1,1.130848026E1,1.146127821E1
8.267592230E-1,4.699503899E0,-4.211367965E-1,1.006899738E1,1.111968531E1
8.291348480E-1,-5.359922886E0,-3.110669553E-1,8.623732567E0,1.015845950E1
8.315104200E-1,2.378465652E0,-5.838487148E-1,1.158604717E1,1.184206347E1
8.338859930E-1,9.619147182E-1,-6.747759581E-1,8.551948547E0,8.632289759E0
8.362615660E-1,-4.082155228E0,1.004985496E-1,1.024128056E1,1.102533077E1
8.386372430E-1,4.407579422E0,-9.188438654E-1,1.063370419E1,1.154758395E1
8.410127120E-1,-4.264009953E0,-3.541377485E-1,8.642875671E0,9.643987468E0
8.433882850E-1,3.780659735E-1,-3.684946895E-1,1.183011532E1,1.184188966E1
8.457638580E-1,3.689732552E0,-4.211367965E-1,9.102297783E0,9.830732802E0
8.481394830E-1,-5.383851051E0,-1.435693651E-1,9.116654396E0,1.058866619E1
8.505150560E-1,3.661018610E0,-8.566305041E-1,1.130369377E1,1.191261373E1
8.528906290E-1,-2.038684845E0,-5.072783828E-1,8.384450912E0,8.643644160E0
8.552662020E-1,-1.919043779E0,-9.092725813E-2,1.138504982E1,1.154601040E1
8.576417750E-1,4.522434711E0,-5.886343718E-1,9.920642853E0,1.091870234E1
8.600173480E-1,-5.383851051E0,-4.259224236E-1,8.599804878E0,1.015499414E1
8.623929200E-1,2.402393818E0,-5.503492355E-1,1.187318611E1,1.212629081E1
8.647684930E-1,1.205982566E0,-4.785645306E-1,8.513663292E0,8.611961484E0
8.671440660E-1,-4.259224415E0,2.871387079E-2,1.002592659E1,1.089316396E1
8.695196910E-1,4.115654945E0,-1.129412293E0,1.063848972E1,1.146261974E1
8.718952640E-1,-4.163511276E0,-4.211367965E-1,8.791230202E0,9.736421869E0
8.742708370E-1,6.125625968E-1,-3.924229145E-1,1.183011532E1,1.185246207E1
8.766464100E-1,3.536591768E0,-4.354937077E-1,9.044869423E0,9.721460743E0
8.790219830E-1,-5.694917679E0,-2.775674164E-1,9.121439934E0,1.075684887E1
8.813975560E-1,3.641875982E0,-7.752745152E-1,1.150947666E1,1.209679149E1
8.837731290E-1,-1.713261008E0,-5.934200287E-1,8.499305725E0,8.690547073E0
8.861487540E-1,-2.148754835E0,-3.397808075E-1,1.112183952E1,1.133260397E1
8.885243270E-1,4.273581028E0,-9.092726111E-1,9.968499184E0,1.088399042E1
8.908999000E-1,-5.335994720E0,-2.392822653E-1,8.906085968E0,1.038501146E1
8.932754730E-1,2.364108801E0,-6.364908218E-1,1.183968639E1,1.209017390E1
8.956510450E-1,1.320838094E0,-4.642075896E-1,8.537590981E0,8.651621912E0
8.980266180E-1,-4.565505505E0,-3.780659735E-1,9.949356079E0,1.095337668E1
9.004021910E-1,4.158725739E0,-8.470591903E-1,1.089212894E1,1.168978109E1
9.027777640E-1,-3.948157310E0,-4.115654826E-1,8.666803360E0,9.532618359E0
9.051533370E-1,5.120640397E-1,-3.445664644E-1,1.178225899E1,1.179841356E1
9.075289620E-1,3.278167009E0,-6.891329288E-1,9.006584167E0,9.609362180E0
9.099045350E-1,-5.632704735E0,-3.254238665E-1,9.078369141E0,1.068878148E1
9.122801080E-1,3.550948858E0,-6.173482537E-1,1.174397373E1,1.228459506E1
9.146556810E-1,-1.220339537E0,-3.637090325E-1,8.484949112E0,8.579969363E0
9.170312540E-1,-2.416750908E0,-1.722832322E-1,1.087298584E1,1.113966730E1
9.194068270E-1,4.130012035E0,-1.167697430E0,9.853643417E0,1.074778141E1
9.217824000E-1,-5.192425251E0,-2.249253243E-1,9.068798065E0,1.045251021E1
9.241579730E-1,2.775674343E0,-5.024927258E-1,1.188754272E1,1.221763230E1
9.265335980E-1,1.325623751E0,-3.349951804E-1,8.374878883E0,8.485758446E0
9.289091700E-1,-4.814359188E0,-1.627119333E-1,9.887143135E0,1.099818753E1
9.312847430E-1,4.235296249E0,-8.374879360E-1,1.089212894E1,1.171655211E1
9.336603160E-1,-3.393022537E0,-4.594219327E-1,8.901300430E0,9.537128488E0
9.360358890E-1,3.780659735E-1,-2.344966233E-1,1.160997581E1,1.161849650E1
9.384114620E-1,3.388236761E0,-7.274180651E-1,8.968298912E0,9.614555152E0
9.407870350E-1,-5.627918720E0,-1.531406492E-1,9.159725189E0,1.075162717E1
9.431626080E-1,3.890729666E0,-5.886343718E-1,1.162433243E1,1.227230101E1
9.455382330E-1,-8.422735929E-1,-1.722832322E-1,8.437092781E0,8.480780678E0
9.479138060E-1,-2.718246460E0,-2.201396823E-1,1.068156052E1,1.102420339E1
9.502893790E-1,4.307080746E0,-8.949156404E-1,9.920642853E0,1.085223356E1
9.526649520E-1,-4.852644444E0,-2.153540403E-1,9.049654961E0,1.027087096E1
9.550405250E-1,2.746960402E0,-3.684946895E-1,1.189232826E1,1.221102171E1
9.574160980E-1,1.473978758E0,-4.402793646E-1,8.274380684E0,8.416165101E0
9.597916700E-1,-5.000999451E0,-3.876372576E-1,9.652647018E0,1.087813645E1
9.621672430E-1,4.240081787E0,-6.747759581E-1,1.140419292E1,1.218561580E1
9.645428680E-1,-2.971885681E0,-1.435693651E-1,8.901300430E0,9.385407078E0
9.669184410E-1,-6.699903309E-2,-1.483550072E-1,1.113141060E1,1.113260077E1
9.692940140E-1,3.091526747E0,-9.475577474E-1,8.934800148E0,9.501897547E0
9.716695870E-1,-5.642275810E0,-2.632105052E-1,9.303294182E0,1.088374194E1
9.740451600E-1,4.000799656E0,-6.269195080E-1,1.180140114E1,1.247687841E1
9.764207330E-1,-8.566305041E-1,-2.440679073E-1,8.202595711E0,8.250815800E0
9.787963060E-1,-3.488735437E0,-3.972085714E-1,1.070548820E1,1.126661117E1
9.811718790E-1,4.163511276E0,-8.374879360E-1,1.013121128E1,1.098533815E1
9.835475040E-1,-4.536791801E0,-1.339980662E-1,9.207581520E0,1.026547577E1
9.859230770E-1,2.153540373E0,-5.599204898E-1,1.155254745E1,1.176488843E1
9.882986500E-1,1.564906001E0,-8.374879360E-1,8.417949677E0,8.603033976E0
9.906742230E-1,-5.292923450E0,-1.627119333E-1,9.695717812E0,1.104755438E1
9.930497950E-1,4.235296249E0,-7.417750359E-1,1.135633659E1,1.214307808E1
9.954253680E-1,-2.861815929E0,-1.052841991E-1,8.781659126E0,9.236807467E0
9.978009410E-1,-9.427721500E-1,-5.503492355E-1,1.097348499E1,1.102765054E1
1.000176514E0,3.570091486E0,-9.236295223E-1,9.494720459E0,1.018569395E1
1.002552139E0,-5.498706341E0,8.135596663E-2,9.174081802E0,1.069608186E1
1.004927712E0,3.632304668E0,-5.216353536E-1,1.153819084E1,1.210766652E1
1.007303285E0,-7.082754970E-1,-5.647061467E-1,8.240880966E0,8.290516649E0
1.009678858E0,-3.670589924E0,-4.977070987E-1,1.045663452E1,1.109333801E1
1.012054431E0,4.388436794E0,-6.317051649E-1,1.071506023E1,1.159611766E1
1.014430004E0,-4.287938118E0,-4.785645381E-2,9.073583603E0,1.003586683E1
1.016805577E0,1.603191137E0,-5.120640397E-1,1.130848026E1,1.143302922E1
1.019181150E0,1.933400750E0,-8.566305041E-1,8.638090134E0,8.893169032E0
1.021556775E0,-5.335994720E0,5.264209956E-2,9.456435204E0,1.085816640E1
1.023932348E0,4.460221291E0,-6.699903607E-1,1.147119141E1,1.232601693E1
1.026307920E0,-2.593819857E0,-1.627119333E-1,8.504091263E0,8.892353166E0
1.028683493E0,-1.416550994E0,-7.082754970E-1,1.093998528E1,1.105402862E1
1.031059066E0,3.962514400E0,-6.173482537E-1,9.839286804E0,1.062516842E1
1.033434639E0,-5.058426857E0,1.579262912E-1,9.121439934E0,1.043136086E1
1.035810212E0,3.675375462E0,-3.206382394E-1,1.142812061E1,1.200887732E1
1.038185785E0,-4.977070987E-1,-6.508477330E-1,8.188239098E0,8.229129641E0
1.040561358E0,-3.885943890E0,-3.541377485E-1,1.036570740E1,1.107582337E1
1.042936983E0,4.814359188E0,-5.934200287E-1,1.090170002E1,1.193219448E1
1.045312556E0,-3.871587038E0,1.818545163E-1,8.886942863E0,9.695360268E0
1.047688129E0,1.201196909E0,-4.307080805E-1,1.120798111E1,1.128039113E1
1.050063702E0,2.373680115E0,-8.709874153E-1,8.709874153E0,9.069447840E0
1.052439275E0,-5.101497650E0,1.962114573E-1,9.542576790E0,1.082240957E1
1.054814848E0,4.780859470E0,-5.216353536E-1,1.130369377E1,1.228422621E1
1.057190420E0,-2.565105915E0,-3.349951804E-1,8.346165657E0,8.737875674E0
1.059566045E0,-1.703689694E0,-4.594219327E-1,1.106919765E1,1.120895909E1
1.061941566E0,4.201796532E0,-5.264210105E-1,9.805787086E0,1.068108953E1
1.064317191E0,-4.800002098E0,2.249253243E-1,9.245866776E0,1.042001267E1
1.066692764E0,3.378665686E0,-5.216353536E-1,1.127498055E1,1.178187895E1
1.069068337E0,-1.531406492E-1,-7.465606928E-1,8.269595146E0,8.304637789E0
1.071443910E0,-4.240081787E0,-9.092725813E-2,1.037049294E1,1.120418159E1
1.073819483E0,4.914857864E0,-6.508477330E-1,1.082991505E1,1.191077204E1
1.076195056E0,-4.034298897E0,3.349951655E-2,8.867800713E0,9.742411369E0
1.078570681E0,6.508477330E-1,-7.465606928E-1,1.122712421E1,1.127072641E1
1.080946254E0,2.517249346E0,-7.369893789E-1,8.858229637E0,9.238394337E0
1.083321827E0,-5.158925533E0,1.531406492E-1,9.614361763E0,1.091209956E1
1.085697400E0,4.460221291E0,-4.929214716E-1,1.125583744E1,1.211736036E1
1.088072973E0,-2.871387243E0,-4.785645306E-1,8.173882484E0,8.676764580E0
1.090448545E0,-2.383251429E0,-7.417750359E-1,1.104048347E1,1.131911626E1
1.092824118E0,4.364508629E0,-6.795616150E-1,1.018385315E1,1.110052271E1
1.095199691E0,-4.900500774E0,1.483550072E-1,9.064012527E0,1.030501044E1
1.097575264E0,2.679961443E0,-5.742774606E-1,1.131326580E1,1.164053139E1
1.099950889E0,-2.105683982E-1,-9.571290612E-1,8.193024635E0,8.251429438E0
1.102326462E0,-4.493721008E0,-8.614161611E-2,1.053799057E1,1.145644771E1
1.104702035E0,4.847858906E0,-6.029912829E-1,1.097348499E1,1.201177370E1
1.107077608E0,-4.287938118E0,-4.019941986E-1,8.528019905E0,9.553802182E0
1.109453181E0,2.871387079E-2,-7.082754970E-1,1.148076344E1,1.150262612E1
1.111828754E0,2.703889608E0,-7.130611539E-1,9.025727272E0,9.448980263E0
1.114204327E0,-5.245067120E0,1.004985496E-1,9.662218094E0,1.099451170E1
1.116579900E0,4.067798615E0,-6.077769399E-1,1.127498055E1,1.200173174E1
1.118955473E0,-2.545963287E0,-7.848458290E-1,8.044670105E0,8.474351252E0
1.121331098E0,-2.761317253E0,-4.163511395E-1,1.116491032E1,1.150884198E1
1.123706670E0,4.584648132E0,-7.848458290E-1,1.022692394E1,1.123498798E1
1.126082243E0,-4.991427898E0,1.531406492E-1,9.078369141E0,1.036120605E1
1.128457816E0,2.368894339E0,-9.044869542E-1,1.125105190E1,1.153325305E1
1.130833389E0,4.211367965E-1,-7.130611539E-1,8.403593063E0,8.444299189E0
1.133208962E0,-4.455435753E0,0.000000000E0,1.042313576E1,1.133546059E1
1.135584535E0,4.986642361E0,-5.168496966E-1,1.093998528E1,1.203399408E1
1.137960108E0,-4.153940201E0,-5.838487148E-1,8.293522835E0,9.294009873E0
1.140335733E0,-1.579262912E-1,-4.737788737E-1,1.158604717E1,1.159680543E1
1.142711306E0,3.431307554E0,-6.891329288E-1,9.178867340E0,9.823460764E0
1.145086879E0,-4.924428940E0,2.775674164E-1,9.461220741E0,1.066966457E1
1.147462452E0,4.000799656E0,-7.800601721E-1,1.118405342E1,1.190369450E1
1.149838025E0,-1.909472466E0,-6.987041831E-1,8.154739380E0,8.404406403E0
1.152213598E0,-2.679961443E0,-1.531406492E-1,1.133719349E1,1.165064812E1
1.154589170E0,5.139782906E0,-5.359922647E-1,1.019820976E1,1.143276600E1
1.156964743E0,-4.871787071E0,-1.770688742E-1,8.796015739E0,1.005661750E1
1.159340316E0,2.220539331E0,-6.221339107E-1,1.147119141E1,1.170068707E1
1.161715941E0,1.196411371E0,-5.982056856E-1,8.398807526E0,8.504658610E0
1.164091514E0,-4.273581028E0,6.699903309E-2,1.030349445E1,1.115481876E1
1.166467087E0,4.934000492E0,-5.312066078E-1,1.087777138E1,1.195627247E1
1.168842660E0,-3.761517286E0,-6.652047038E-1,8.331808090E0,9.165726138E0
1.171218233E0,-3.493520916E-1,-3.349951804E-1,1.177268696E1,1.178263243E1
1.173593806E0,3.996013880E0,-6.939185858E-1,9.284152031E0,1.013139323E1
1.175969379E0,-5.082355499E0,1.387837082E-1,9.260223389E0,1.056415333E1
1.178344952E0,3.795016766E0,-7.752745152E-1,1.131805134E1,1.196250346E1
1.180720577E0,-1.550549030E0,-4.594219327E-1,8.236095428E0,8.393362777E0
1.183096150E0,-2.780459881E0,-2.584248483E-1,1.115533924E1,1.149953626E1
1.185471723E0,5.163711071E0,-4.354937077E-1,1.026999474E1,1.150331946E1
1.187847295E0,-4.881358147E0,-3.349951804E-1,8.666803360E0,9.952555431E0
1.190222868E0,1.890329838E0,-6.556333899E-1,1.159561825E1,1.176696922E1
1.192598441E0,1.435693622E0,-7.274180651E-1,8.484949112E0,8.636244244E0
1.194974014E0,-4.374079704E0,1.627119333E-1,1.021735287E1,1.111545537E1
1.197349639E0,4.599005222E0,-6.747759581E-1,1.094477081E1,1.189092847E1
1.199725212E0,-3.876372576E0,-6.604190469E-1,8.274380684E0,9.161211348E0
1.202100785E0,-5.790630579E-1,-3.493520916E-1,1.182532978E1,1.184465218E1
1.204476358E0,4.173082829E0,-5.934200287E-1,9.284152031E0,1.019618784E1
1.206851931E0,-5.326423168E0,-7.657032460E-2,9.126225471E0,1.056714901E1
1.209227504E0,3.416950703E0,-8.566305041E-1,1.129890823E1,1.183531559E1
1.211603077E0,-1.560120344E0,-4.498506486E-1,8.293522835E0,8.450968116E0
1.213978650E0,-2.799602509E0,-2.009970993E-1,1.115533924E1,1.150303297E1
1.216354223E0,4.814359188E0,-4.689932466E-1,1.030349445E1,1.138244293E1
1.218729795E0,-5.134997368E0,-4.929214716E-1,8.609375954E0,1.003655936E1
1.221105420E0,1.674975872E0,-3.972085714E-1,1.178225899E1,1.190734839E1
1.223480993E0,1.703689694E0,-6.891329288E-1,8.556734085E0,8.751866142E0
1.225856566E0,-4.694717884E0,-1.052841991E-1,9.920642853E0,1.097591069E1
1.228232139E0,4.378865242E0,-6.987041831E-1,1.099262714E1,1.185329068E1
1.230607712E0,-3.761517286E0,-3.014956415E-1,8.480163574E0,9.281868678E0
1.232983285E0,-5.982056856E-1,-4.450650215E-1,1.163868904E1,1.166254756E1
1.235358858E0,4.173082829E0,-5.312066078E-1,9.480362892E0,1.037179258E1
1.237734431E0,-5.316852093E0,-2.153540403E-1,8.977870941E0,1.043635282E1
1.240110056E0,3.378665686E0,-5.120640397E-1,1.149512005E1,1.199230488E1
1.242485629E0,-1.373480201E0,-4.450650215E-1,8.173882484E0,8.300414785E0
1.244861202E0,-2.689532757E0,-2.201396823E-1,1.094955635E1,1.127718193E1
1.247236775E0,4.776073933E0,-7.274180651E-1,1.027478027E1,1.135390369E1
1.249612348E0,-4.895715237E0,-2.009970993E-1,8.647661209E0,9.939339611E0
1.251987920E0,1.852044702E0,-4.402793646E-1,1.171047401E1,1.186419475E1
1.254363493E0,1.765903115E0,-4.977070987E-1,8.547162056E0,8.741859378E0
1.256739066E0,-4.517649174E0,-1.722832322E-1,9.781859398E0,1.077606648E1
1.259114639E0,4.426722050E0,-6.795616150E-1,1.107398319E1,1.194532443E1
1.261490264E0,-3.665804386E0,-3.828516304E-1,8.370093346E0,9.145663441E0
1.263865837E0,-5.742774159E-2,-4.019941986E-1,1.175833035E1,1.176534019E1
1.266241410E0,3.938585997E0,-6.556333899E-1,9.245866776E0,1.007116514E1
1.268616983E0,-5.264209747E0,-3.302095234E-1,9.044869423E0,1.047046348E1
1.270992556E0,3.584448338E0,-5.838487148E-1,1.168654537E1,1.223783036E1
1.273368129E0,-1.335195065E0,-4.929214716E-1,8.221738815E0,8.344022207E0
1.275743702E0,-2.344966173E0,-1.579262912E-1,1.100698376E1,1.125510988E1
1.278119327E0,4.512863636E0,-1.143769264E0,9.978070259E0,1.101072352E1
1.280494848E0,-5.024927616E0,-2.871387303E-1,8.953942299E0,1.027158356E1
1.282870473E0,2.354537487E0,-5.694918036E-1,1.177268696E1,1.201933134E1
1.285246045E0,1.488335729E0,-4.546363056E-1,8.542376518E0,8.682973799E0
1.287621618E0,-4.632504463E0,-3.014956415E-1,9.877572060E0,1.091409305E1
1.289997191E0,4.374079704E0,-9.044869542E-1,1.092562866E1,1.180339068E1
1.292372764E0,-3.838087559E0,-4.785645306E-1,8.738588333E0,9.556299816E0
1.294748337E0,5.168496966E-1,-4.307080805E-1,1.177747345E1,1.179667427E1
1.297123910E0,3.297309637E0,-6.987041831E-1,8.953942299E0,9.567315249E0
1.299499483E0,-5.570491314E0,-3.780659735E-1,9.145368576E0,1.071499294E1
1.301875108E0,3.646661758E0,-7.561319470E-1,1.174875927E1,1.232490251E1
1.304250681E0,-1.421336651E0,-4.211367965E-1,8.542376518E0,8.670049057E0
1.306626254E0,-2.316252232E0,-1.483550072E-1,1.093519974E1,1.117880257E1
1.309001827E0,4.034298897E0,-1.110269666E0,9.757930756E0,1.061722558E1
1.311377400E0,-5.249852657E0,-2.871387303E-1,9.078369141E0,1.049095743E1
1.313752973E0,2.928814888E0,-6.556333899E-1,1.194497108E1,1.231625536E1
1.316128545E0,9.762716293E-1,-3.924229145E-1,8.274380684E0,8.341011794E0
1.318504118E0,-4.761716843E0,-3.110669553E-1,1.009292603E1,1.116413300E1
1.320879743E0,4.287938118E0,-8.135597110E-1,1.089691448E1,1.173844274E1
1.323255316E0,-3.708875179E0,-2.679961324E-1,8.910871506E0,9.655630897E0
1.325630889E0,6.747759581E-1,-4.307080805E-1,1.147119141E1,1.149908972E1
1.328006462E0,2.976671457E0,-8.039883971E-1,8.949156761E0,9.465430632E0
1.330382035E0,-5.608776093E0,4.785645287E-3,9.217152596E0,1.078954559E1
1.332757608E0,3.943371773E0,-6.699903607E-1,1.153340530E1,1.220731362E1
1.335133181E0,-1.502692580E0,-1.914258152E-1,8.580661774E0,8.713350980E0
1.337508754E0,-2.282752752E0,-4.833501875E-1,1.073420238E1,1.098488454E1
1.339884327E0,4.268795490E0,-6.987041831E-1,9.997213364E0,1.089289115E1
1.342259952E0,-5.067998409E0,1.148554832E-1,8.963513374E0,1.029768769E1
1.344635525E0,3.077169895E0,-4.785645306E-1,1.164826107E1,1.205736225E1
1.347011098E0,7.848458290E-1,-6.173482537E-1,8.274380684E0,8.334415249E0
1.349386670E0,-4.326223373E0,-2.201396823E-1,1.005942631E1,1.095247588E1
1.351762243E0,4.407579422E0,-5.982056856E-1,1.102134132E1,1.188505663E1
1.354137816E0,-3.479164124E0,-7.178468257E-2,8.925228119E0,9.579636372E0
1.356513389E0,7.130611539E-1,-4.115654826E-1,1.127498055E1,1.130500016E1
1.358888962E0,3.129812002E0,-8.997012973E-1,8.982656479E0,9.554752902E0
1.361264587E0,-5.417350292E0,4.785645287E-3,9.260223389E0,1.072844091E1
1.363640160E0,4.264009953E0,-7.034898400E-1,1.164826107E1,1.242411626E1
1.366015733E0,-1.665404558E0,-2.392822653E-1,8.350951195E0,8.518756611E0
1.368391306E0,-2.378465652E0,-6.125625968E-1,1.081077290E1,1.108625917E1
1.370766879E0,4.321437836E0,-8.853443861E-1,1.004506969E1,1.097096554E1
1.373142452E0,-4.833501816E0,9.571290575E-3,9.150154114E0,1.034834053E1
1.375518025E0,3.072384357E0,-4.067798555E-1,1.149512005E1,1.190557854E1
1.377893598E0,3.684946895E-1,-7.130611539E-1,8.202595711E0,8.241772925E0
1.380269223E0,-4.675575256E0,-4.929214716E-1,1.007378292E1,1.111688256E1
1.382644795E0,4.704289436E0,-7.369893789E-1,1.121276665E1,1.218193861E1
1.385020368E0,-3.637090445E0,-6.699903309E-2,8.776873589E0,9.500864474E0
1.387395941E0,1.866401732E-1,-3.972085714E-1,1.138026428E1,1.138872356E1
1.389771514E0,2.837887764E0,-9.906286001E-1,8.819944382E0,9.318066907E0
1.392147087E0,-5.541777134E0,-1.196411327E-1,9.470791817E0,1.097367329E1
1.394522660E0,4.331008911E0,-6.412764788E-1,1.174875927E1,1.253803087E1
1.396898233E0,-2.067398787E0,-2.919243574E-1,8.121239662E0,8.385337872E0
1.399273806E0,-2.842673302E0,-6.269195080E-1,1.073420238E1,1.112191172E1
1.401649379E0,4.197010994E0,-7.034898400E-1,1.027956581E1,1.112561335E1
1.404025004E0,-4.780859470E0,1.052841991E-1,9.226723671E0,1.039231118E1
1.406400577E0,2.723032236E0,-3.684946895E-1,1.137069321E1,1.169800654E1
1.408776150E0,3.349951804E-1,-8.470591903E-1,8.159524918E0,8.210211807E0
1.411151723E0,-4.905286312E0,-2.440679073E-1,1.007856941E1,1.121155495E1
1.413527295E0,4.728217602E0,-6.269195080E-1,1.129890823E1,1.226435473E1
1.415902868E0,-3.656233072E0,3.349951655E-2,8.571090698E0,9.318409642E0
1.418278441E0,-1.339980662E-1,-4.450650215E-1,1.114576817E1,1.115545545E1
1.420654014E0,2.919243574E0,-8.566305041E-1,9.092725754E0,9.588193808E0
1.423029639E0,-5.206781864E0,2.201396823E-1,9.533005714E0,1.086449432E1
1.425405212E0,4.244867325E0,-4.259224236E-1,1.135155106E1,1.212674812E1
1.427780785E0,-1.923829436E0,-4.642075896E-1,7.977670670E0,8.219479162E0
1.430156358E0,-3.034099102E0,-4.115654826E-1,1.077727318E1,1.120378332E1
1.432531931E0,4.675575256E0,-6.077769399E-1,1.039920712E1,1.141813931E1
1.434907504E0,-4.445864677E0,2.105683982E-1,9.016156197E0,1.005490549E1
1.437283077E0,2.273181438E0,-3.589234054E-1,1.130369377E1,1.153558290E1
1.439658650E0,1.000199914E0,-8.614161611E-1,8.226524353E0,8.331754953E0
1.442034223E0,-4.742574692E0,1.914258115E-2,1.001635551E1,1.108240763E1
1.444409848E0,5.077569485E0,-5.407779217E-1,1.112662506E1,1.224238285E1
1.446785420E0,-3.503092289E0,-3.206382394E-1,8.365307808E0,9.074846510E0
1.449160993E0,-5.216353536E-1,-4.594219327E-1,1.135633659E1,1.137758994E1
1.451536566E0,3.613162279E0,-6.364908218E-1,9.221938133E0,9.924928471E0
1.453912139E0,-4.996213913E0,2.009970993E-1,9.389435768E0,1.063785962E1
1.456287712E0,3.996013880E0,-6.987041831E-1,1.125105190E1,1.196003693E1
1.458663285E0,-1.349551916E0,-7.513462901E-1,8.068597794E0,8.215113023E0
1.461038858E0,-3.287738323E0,-5.742774159E-2,1.099741268E1,1.147848452E1
1.463414431E0,4.934000492E0,-7.082754970E-1,1.026999474E1,1.141572630E1
1.465790056E0,-4.661218643E0,-2.009970993E-1,8.901300430E0,1.004990092E1
1.468165629E0,1.952543259E0,-5.982056856E-1,1.155254745E1,1.173165069E1
1.470541202E0,1.493121386E0,-6.077769399E-1,8.336593628E0,8.491030420E0
1.472916775E0,-4.934000492E0,9.571290575E-3,9.987641335E0,1.113990269E1
1.475292348E0,4.766502857E0,-5.934200287E-1,1.119841003E1,1.218507629E1
1.477667920E0,-3.479164124E0,-4.881358147E-1,8.365307808E0,9.073104997E0
1.480043493E0,-9.954141974E-1,-4.546363056E-1,1.137069321E1,1.142323105E1
1.482419066E0,3.799802303E0,-7.944171429E-1,9.418149948E0,1.018681229E1
1.484794639E0,-5.096712112E0,2.727817893E-1,9.370293617E0,1.067020556E1
1.487170264E0,3.632304668E0,-6.556333899E-1,1.126062298E1,1.185011064E1
1.489545837E0,-1.526620865E0,-8.518448472E-1,8.078168869E0,8.265169277E0
1.491921410E0,-3.383451223E0,-1.244267747E-1,1.117448139E1,1.167614057E1
1.494296983E0,5.034498692E0,-5.359922647E-1,1.033699417E1,1.151029597E1
1.496672556E0,-4.852644444E0,-1.100698411E-1,8.796015739E0,1.004640067E1
1.499048129E0,1.598405480E0,-8.757730722E-1,1.144726372E1,1.159145052E1
1.501423702E0,1.450050473E0,-5.982056856E-1,8.580661774E0,8.722858069E0
1.503799275E0,-4.699503899E0,1.196411327E-1,1.008814049E1,1.112970033E1
1.506174900E0,4.642076015E0,-6.077769399E-1,1.111705399E1,1.206263453E1
1.508550473E0,-3.699303865E0,-6.843472719E-1,8.202595711E0,9.024176232E0
1.510926045E0,-7.609176040E-1,-1.866401732E-1,1.165304661E1,1.167935467E1
1.513301618E0,4.024727821E0,-6.699903607E-1,9.241081238E0,1.010172775E1
1.515677191E0,-5.240281582E0,2.871387079E-2,9.169296265E0,1.056112539E1
1.518052764E0,3.699303865E0,-6.891329288E-1,1.138983536E1,1.199533671E1
1.520428337E0,-1.402194023E0,-4.929214716E-1,8.078168869E0,8.213764784E0
1.522803910E0,-2.995813847E0,-2.297109663E-1,1.110748291E1,1.150668694E1
1.525179483E0,5.091926575E0,-4.977070987E-1,1.028913784E1,1.149094366E1
1.527555108E0,-4.780859470E0,-3.397808075E-1,8.604590416E0,9.849418485E0
1.529930681E0,1.976471543E0,-3.445664644E-1,1.175354481E1,1.192354735E1
1.532306254E0,1.560120344E0,-6.460621357E-1,8.207381248E0,8.379288677E0
1.534681827E0,-4.378865242E0,1.052841991E-1,1.010249710E1,1.101117583E1
1.537057400E0,4.752145767E0,-7.465606928E-1,1.100698376E1,1.201224099E1
1.539432973E0,-3.498306751E0,-4.402793646E-1,8.307880402E0,9.025124532E0
1.541808545E0,-3.828516304E-1,-2.536391914E-1,1.171047401E1,1.171947566E1
1.544184118E0,4.287938118E0,-5.503492355E-1,9.236295700E0,1.019796332E1
1.546559743E0,-5.173282623E0,-6.221338734E-2,9.064012527E0,1.043662046E1
1.548935316E0,3.771088600E0,-6.364908218E-1,1.139940739E1,1.202383959E1
1.551310889E0,-1.435693622E0,-4.642075896E-1,8.250452042E0,8.387291801E0
1.553686462E0,-2.488535643E0,-2.584248483E-1,1.120319557E1,1.147916304E1
1.556062035E0,5.034498692E0,-5.503492355E-1,1.013599682E1,1.133082048E1
1.558437608E0,-4.972285271E0,-4.594219327E-1,8.666803360E0,1.000240820E1
1.560813181E0,2.043470621E0,-3.972085714E-1,1.181097221E1,1.199302345E1
1.563188754E0,1.483550072E0,-6.460621357E-1,8.389236450E0,8.543863606E0
1.565564327E0,-4.335794449E0,-1.004985496E-1,1.004506969E1,1.094132710E1
1.567939952E0,4.541577339E0,-7.944171429E-1,1.094477081E1,1.187623810E1
1.570315525E0,-3.996013880E0,-4.019941986E-1,8.475378036E0,9.378793053E0
1.572691098E0,-7.178468257E-2,-4.785645306E-1,1.174397373E1,1.175393960E1
1.575066670E0,3.866801500E0,-5.599204898E-1,9.217152596E0,1.001107221E1
1.577442243E0,-5.369493961E0,-2.919243574E-1,9.169296265E0,1.062980147E1
1.579817816E0,3.670589924E0,-6.699903607E-1,1.146640587E1,1.205821633E1
1.582193389E0,-2.000399828E0,-6.843472719E-1,8.221738815E0,8.489223746E0
1.584568962E0,-2.196611166E0,-2.297109663E-1,1.141854954E1,1.163018234E1
1.586944535E0,4.450650215E0,-6.556333899E-1,9.968499184E0,1.093659538E1
1.589320160E0,-5.407779217E0,-4.642075896E-1,8.647661209E0,1.020987802E1
1.591695733E0,2.292324066E0,-6.317051649E-1,1.191625690E1,1.215117195E1
1.594071306E0,1.038485050E0,-5.312066078E-1,8.513663292E0,8.593200469E0
1.596446879E0,-4.273581028E0,7.657032460E-2,1.020299530E1,1.106211874E1
1.598822452E0,4.091726780E0,-1.086341500E0,1.052841949E1,1.134768624E1
1.601198025E0,-4.441078663E0,-4.833501875E-1,8.642875671E0,9.729137010E0
1.603573598E0,7.752745152E-1,-4.546363056E-1,1.203589821E1,1.206940721E1
1.605949170E0,3.364308596E0,-4.881358147E-1,8.815158844E0,9.447956094E0
1.608324743E0,-5.661418438E0,-2.344966233E-1,9.265008926E0,1.086034243E1
1.610700368E0,3.675375462E0,-7.561319470E-1,1.135155106E1,1.195566107E1
1.613075941E0,-2.005185366E0,-5.599204898E-1,8.461020470E0,8.713388933E0
1.615451514E0,-1.636690736E0,-2.105683982E-1,1.134676456E1,1.146613107E1
1.617827087E0,4.297509670E0,-7.609176040E-1,9.705288887E0,1.064143869E1
1.620202660E0,-5.508277893E0,-2.632105052E-1,8.729017258E0,1.032502530E1
1.622578233E0,2.837887764E0,-6.077769399E-1,1.187318611E1,1.222274716E1
1.624953806E0,1.028913736E0,-4.259224236E-1,8.494520187E0,8.567201795E0
1.627329379E0,-4.153940201E0,-1.579262912E-1,1.005942631E1,1.088449436E1
1.629704952E0,4.364508629E0,-9.523434043E-1,1.059541893E1,1.149864322E1
1.632080525E0,-4.182653904E0,-4.354937077E-1,8.839086533E0,9.788447230E0
1.634456150E0,1.205982566E0,-3.541377485E-1,1.187797165E1,1.194428809E1
1.636831723E0,3.196810961E0,-5.216353536E-1,8.714659691E0,9.297149955E0
1.639207295E0,-5.632704735E0,-2.775674164E-1,9.236295700E0,1.082190208E1
1.641582868E0,3.890729666E0,-8.087740541E-1,1.158604717E1,1.224860734E1
1.643958441E0,-1.622333765E0,-3.589234054E-1,8.662017822E0,8.819940227E0
1.646334014E0,-1.694118381E0,-2.297109663E-1,1.101655579E1,1.114842166E1
1.648709587E0,4.024727821E0,-9.858429432E-1,9.614361763E0,1.046930143E1
1.651085212E0,-5.407779217E0,-2.632105052E-1,9.078369141E0,1.057024797E1
1.653460785E0,3.259024382E0,-6.508477330E-1,1.200239849E1,1.245401189E1
1.655836358E0,7.274180651E-1,-3.924229145E-1,8.169096947E0,8.210802501E0
1.658211931E0,-4.532006264E0,-2.105683982E-1,1.023170948E1,1.119246616E1
1.660587504E0,4.311866283E0,-8.949156404E-1,1.080120182E1,1.166443422E1
1.662963077E0,-3.818944931E0,-4.115654826E-1,8.968298912E0,9.756234515E0
1.665338650E0,8.853443861E-1,-4.594219327E-1,1.159561825E1,1.163843915E1
1.667714223E0,2.861815929E0,-8.231309652E-1,8.901300430E0,9.386196479E0
1.670089795E0,-5.685346603E0,-1.244267747E-1,9.293723106E0,1.089550078E1
1.672465368E0,3.967299938E0,-7.992027402E-1,1.160997581E1,1.229511009E1
1.674840993E0,-1.703689694E0,-3.158525825E-1,8.609375954E0,8.782008639E0
1.677216566E0,-2.301895380E0,-4.019941986E-1,1.084427261E1,1.109317674E1
1.679592139E0,4.120440483E0,-8.901300430E-1,9.963713646E0,1.081877770E1
1.681967712E0,-5.278566837E0,-1.387837082E-1,8.982656479E0,1.041972390E1
1.684343285E0,2.986242771E0,-5.072783828E-1,1.168175983E1,1.206807731E1
1.686718858E0,6.221339107E-1,-5.072783828E-1,8.341380119E0,8.379916721E0
1.689094431E0,-4.776073933E0,-3.780659735E-1,9.891928673E0,1.099109044E1
1.691470004E0,4.287938118E0,-7.417750359E-1,1.117926693E1,1.199635997E1
1.693845577E0,-3.565305710E0,-1.148554832E-1,8.949156761E0,9.633898656E0
1.696221202E0,3.397808075E-1,-2.201396823E-1,1.127498055E1,1.128224706E1
1.698596775E0,2.804388046E0,-9.858429432E-1,8.805587769E0,9.293807324E0
1.700972348E0,-5.723631859E0,-1.770688742E-1,9.308079720E0,1.092847945E1
1.703347920E0,4.287938118E0,-6.221339107E-1,1.184925747E1,1.261659092E1
1.705723493E0,-1.579262972E0,-1.962114573E-1,8.178668022E0,8.332057434E0
1.708099066E0,-2.933600664E0,-1.866401732E-1,1.077727318E1,1.117096525E1
1.710474639E0,4.158725739E0,-9.714859724E-1,9.987641335E0,1.086240140E1
1.712850212E0,-4.867001057E0,-2.775674164E-1,9.107083321E0,1.032974877E1
1.715225785E0,2.684746981E0,-4.929214716E-1,1.167697430E1,1.199177079E1
1.717601410E0,1.048056364E0,-6.317051649E-1,8.327022552E0,8.416458765E0
1.719976983E0,-5.197210789E0,-3.302095234E-1,9.753145218E0,1.105639543E1
1.722352556E0,4.445864677E0,-7.226324677E-1,1.131805134E1,1.218138730E1
1.724728129E0,-3.062813044E0,-1.387837082E-1,8.863015175E0,9.378332616E0
1.727103702E0,-4.689932466E-1,-4.115654826E-1,1.115533924E1,1.117277649E1
1.729479275E0,3.311666489E0,-9.714859724E-1,9.145368576E0,9.774900834E0
1.731854848E0,-5.517848969E0,-1.292124242E-1,9.260223389E0,1.078031031E1
1.734230420E0,4.110869408E0,-6.699903607E-1,1.169133186E1,1.241109887E1
1.736606045E0,-1.009771109E0,-3.828516304E-1,8.202595711E0,8.273378358E0
1.738981566E0,-3.589233875E0,-6.604190469E-1,1.041835022E1,1.103905677E1
1.741357191E0,4.450650215E0,-7.465606928E-1,1.074855900E1,1.165749376E1
1.743732764E0,-4.220939159E0,-1.435693540E-2,9.126225471E0,1.005507458E1
1.746108337E0,1.971685886E0,-2.775674164E-1,1.124148083E1,1.141645655E1
1.748483910E0,1.713261008E0,-9.667003751E-1,8.327022552E0,8.556230332E0
1.750859483E0,-5.302495003E0,-3.254238665E-1,9.714859962E0,1.107252717E1
1.753235056E0,4.862215519E0,-7.226324677E-1,1.154776192E1,1.255046385E1
1.755610629E0,-2.483749866E0,-1.100698411E-1,8.389236450E0,8.749880970E0
1.757986254E0,-1.497906923E0,-4.402793646E-1,1.105484104E1,1.116454574E1
1.760361827E0,3.957728624E0,-9.571290612E-1,9.537791252E0,1.037059178E1
1.762737400E0,-4.886143684E0,2.392822690E-2,9.370293617E0,1.056775166E1
1.765112973E0,3.718446493E0,-5.599204898E-1,1.150947666E1,1.210819591E1
1.767488545E0,-1.387837082E-1,-6.173482537E-1,8.073383331E0,8.098141651E0
1.769864118E0,-4.225724697E0,-3.684946895E-1,1.022692394E1,1.107169864E1
1.772239691E0,4.771288395E0,-7.082754970E-1,1.107398319E1,1.207890520E1
1.774615264E0,-3.651447296E0,-2.392822690E-2,8.891729355E0,9.612309339E0
1.776990837E0,8.135597110E-1,-4.307080805E-1,1.117926693E1,1.121710292E1
1.779366410E0,2.761317253E0,-9.092726111E-1,8.930013657E0,9.391314794E0
1.781742035E0,-5.412564754E0,8.614161611E-2,9.322437286E0,1.078012591E1
1.784117608E0,4.532006264E0,-6.077769399E-1,1.143290615E1,1.231339988E1
1.786493181E0,-1.914258122E0,-3.972085714E-1,8.226524353E0,8.455640824E0
1.788868754E0,-2.522035122E0,-4.977070987E-1,1.081077290E1,1.111220879E1
1.791244327E0,4.450650215E0,-5.934200287E-1,1.017906761E1,1.112536975E1
1.793619900E0,-4.622933388E0,1.148554832E-1,9.145368576E0,1.024804719E1
1.795995473E0,2.593819857E0,-4.546363056E-1,1.141376400E1,1.171360765E1
1.798371045E0,1.062413216E0,-7.513462901E-1,8.327022552E0,8.428080901E0
1.800746566E0,-4.905286312E0,-9.571290761E-2,9.805787086E0,1.096469129E1
1.803122243E0,4.675575256E0,-7.322037220E-1,1.138983536E1,1.233391567E1
1.805497816E0,-3.201596737E0,-4.785645287E-3,8.513663292E0,9.095752152E0
1.807873389E0,-5.599204898E-1,-5.982056856E-1,1.101655579E1,1.104698431E1
1.810248962E0,3.603590965E0,-8.231309652E-1,9.552147865E0,1.024240896E1
1.812624535E0,-5.273781300E0,1.722832322E-1,9.332008362E0,1.072048650E1
1.815000108E0,4.000799656E0,-4.354937077E-1,1.136590767E1,1.205735916E1
1.817375681E0,-1.129412293E0,-6.460621357E-1,8.183453560E0,8.286246471E0
1.819751254E0,-3.680161238E0,-4.163511395E-1,1.047577763E1,1.111120389E1
1.822126827E0,4.685146809E0,-6.364908218E-1,1.071027374E1,1.170750549E1
1.824502452E0,-4.144368649E0,5.264209956E-2,8.992227554E0,9.901450352E0
1.826878025E0,1.311266780E0,-5.216353536E-1,1.129890823E1,1.138669624E1
1.829253598E0,2.091326952E0,-8.614161611E-1,8.647661209E0,8.938553049E0
1.831629170E0,-5.297709465E0,1.627119333E-1,9.494720459E0,1.087390994E1
1.834004743E0,4.536791801E0,-6.269195080E-1,1.153819084E1,1.241391783E1
1.836380316E0,-2.636890650E0,-4.450650215E-1,8.207381248E0,8.632055499E0
1.838755889E0,-1.871187329E0,-4.833501875E-1,1.095912743E1,1.112822732E1
1.841131462E0,3.991228104E0,-6.077769399E-1,9.997213364E0,1.078163112E1
1.843507035E0,-4.924428940E0,1.627119333E-1,9.097511292E0,1.034607110E1
1.845882608E0,3.062813044E0,-5.647061467E-1,1.132283688E1,1.174335351E1
1.848258233E0,1.866401732E-1,-7.896314859E-1,8.221738815E0,8.261679102E0
1.850633806E0,-4.594219685E0,8.614161611E-2,1.015992451E1,1.115071033E1
1.853009379E0,4.646861553E0,-6.987041831E-1,1.101655579E1,1.197689489E1
1.855384952E0,-3.780659676E0,-2.392822653E-1,8.633303642E0,9.427861654E0
1.857760525E0,2.153540403E-1,-5.790630579E-1,1.131326580E1,1.133012244E1
1.860136098E0,3.005385160E0,-6.556333899E-1,9.116654396E0,9.621620575E0
1.862511670E0,-5.469992638E0,1.770688742E-1,9.312865257E0,1.080192724E1
1.864887243E0,4.134797573E0,-5.216353536E-1,1.151426220E1,1.224528025E1
1.867262868E0,-1.794616938E0,-6.747759581E-1,8.049455643E0,8.274642511E0
1.869638441E0,-3.014956474E0,-3.780659735E-1,1.084905815E1,1.126654158E1
1.872014014E0,4.488935471E0,-7.465606928E-1,1.032742214E1,1.128554574E1
1.874389587E0,-4.613361835E0,1.052841991E-1,9.140582085E0,1.023935706E1
1.876765160E0,2.091326952E0,-7.082754970E-1,1.120798111E1,1.142340331E1
1.879140733E0,1.201196909E0,-9.092726111E-1,8.475378036E0,8.608233475E0
1.881516306E0,-4.991427898E0,1.914258115E-2,9.978070259E0,1.115690840E1
1.883891879E0,4.862215519E0,-7.513462901E-1,1.123669529E1,1.226657988E1
1.886267452E0,-3.512663603E0,-5.072783828E-1,8.417949677E0,9.135535764E0
1.888643077E0,-7.609176040E-1,-4.833501875E-1,1.135633659E1,1.139205881E1
1.891018650E0,3.632304668E0,-7.417750359E-1,9.341579437E0,1.005032207E1
1.893394170E0,-5.048855782E0,5.264209956E-2,9.384650230E0,1.065670567E1
1.895769795E0,3.804588079E0,-6.795616150E-1,1.146640587E1,1.210021314E1
1.898145368E0,-1.062413216E0,-8.183453679E-1,8.078168869E0,8.188725374E0
1.900520941E0,-3.589233875E0,-1.531406492E-1,1.081555843E1,1.139659406E1
1.902896514E0,4.814359188E0,-8.518448472E-1,1.058106136E1,1.165600933E1
1.905272087E0,-4.426722050E0,-2.201396823E-1,8.901300430E0,9.943715550E0
1.907647660E0,1.732403636E0,-7.082754970E-1,1.149512005E1,1.164648709E1
1.910023181E0,1.794616938E0,-7.896314859E-1,8.542376518E0,8.764494533E0
1.912398858E0,-5.063212872E0,-9.571290575E-3,9.944570541E0,1.115933239E1
1.914774431E0,4.800002098E0,-7.226324677E-1,1.128455162E1,1.228427137E1
1.917150004E0,-3.239881754E0,-7.561319470E-1,8.255238533E0,8.900423166E0
1.919525577E0,-1.134197950E0,-3.684946895E-1,1.152383423E1,1.158537650E1
1.921901150E0,3.938585997E0,-7.944171429E-1,9.485149384E0,1.030104932E1
1.924276723E0,-5.067998409E0,-5.264209956E-2,9.332008362E0,1.061949901E1
1.926652295E0,3.565305710E0,-7.657032609E-1,1.144726372E1,1.201405647E1
1.929027868E0,-7.513462901E-1,-7.752745152E-1,8.173882484E0,8.244872752E0
1.931403441E0,-3.795016766E0,-2.057827413E-1,1.085862923E1,1.150453508E1
1.933779066E0,4.996213913E0,-7.417750359E-1,1.067198944E1,1.180693619E1
1.936154639E0,-4.455435753E0,-1.914258152E-1,8.800801277E0,9.866187446E0
1.938530212E0,1.416550994E0,-7.513462901E-1,1.145683479E1,1.156850040E1
1.940905785E0,1.765903115E0,-7.944171429E-1,8.647661209E0,8.861803247E0
1.943281358E0,-4.838287354E0,1.196411327E-1,1.011685371E1,1.121490382E1
1.945656931E0,4.713860512E0,-4.785645306E-1,1.116491032E1,1.212867377E1
1.948032452E0,-3.503092289E0,-6.508477330E-1,8.102097511E0,8.850945850E0
1.950408077E0,-1.354337573E0,-5.264210105E-1,1.143769264E1,1.152962108E1
1.952783650E0,4.153940201E0,-8.374879360E-1,9.772287369E0,1.065148842E1
1.955159223E0,-5.020142078E0,2.775674164E-1,9.217152596E0,1.049927484E1
1.957534848E0,3.416950703E0,-6.843472719E-1,1.119362450E1,1.172352817E1
1.959910420E0,-1.277767301E0,-8.183453679E-1,8.178668022E0,8.318232326E0
1.962285993E0,-3.388236761E0,-2.105683982E-1,1.109791183E1,1.160552172E1
1.964661566E0,5.211567879E0,-4.642075896E-1,1.046620655E1,1.170117122E1
1.967037139E0,-4.800002098E0,4.785645287E-3,8.609375954E0,9.857048106E0
1.969412660E0,1.167697430E0,-1.014556766E0,1.129890823E1,1.140430489E1
1.971788285E0,2.014756680E0,-6.843472719E-1,8.949156761E0,9.198640247E0
1.974163858E0,-4.527220249E0,1.914258152E-1,9.844072342E0,1.083688734E1
1.976539431E0,4.642076015E0,-5.407779217E-1,1.117926693E1,1.211681970E1
1.978915056E0,-3.613162279E0,-7.800601721E-1,8.025527000E0,8.835865502E0
1.981290629E0,-1.038485050E0,-2.823530734E-1,1.156211948E1,1.161209634E1
1.983666202E0,4.527220249E0,-6.221339107E-1,9.734002113E0,1.075330512E1
1.986041775E0,-5.106283665E0,-9.571290575E-3,8.915657043E0,1.027439366E1
1.988417348E0,3.354737282E0,-7.465606928E-1,1.138983536E1,1.189705697E1
1.990792868E0,-7.944171429E-1,-5.934200287E-1,8.197810173E0,8.257562447E0
1.993168493E0,-3.282952785E0,-1.531406492E-1,1.097348499E1,1.145506892E1
1.995544066E0,5.201996326E0,-5.072783828E-1,1.060499001E1,1.182302458E1
1.997919639E0,-4.656432629E0,-6.556333899E-1,8.365307808E0,9.596384459E0
2.000295264E0,1.258624673E0,-4.594219327E-1,1.184925747E1,1.192476864E1
2.002670837E0,2.579462767E0,-7.513462901E-1,8.657232285E0,9.064536405E0
2.005046410E0,-4.761716843E0,1.435693540E-2,9.657432556E0,1.076755111E1
2.007421983E0,4.484149456E0,-9.379864931E-1,1.127498055E1,1.217015207E1
2.009797556E0,-2.986242771E0,-6.125625968E-1,8.269595146E0,8.813573776E0
2.012173129E0,-1.373480201E0,-4.259224236E-1,1.162911797E1,1.171768930E1
2.014548702E0,4.780859470E0,-5.934200287E-1,9.834501266E0,1.095108121E1
2.016924275E0,-5.216353416E0,-3.349951804E-1,8.896514893E0,1.031845638E1
2.019299848E0,3.148954630E0,-7.417750359E-1,1.158126163E1,1.202463166E1
2.021675420E0,-2.440679073E-1,-7.657032609E-1,8.317451477E0,8.356187510E0
2.024051045E0,-3.407379389E0,-1.914258152E-1,1.085384369E1,1.137773268E1
2.026426618E0,4.972285271E0,-7.704889178E-1,1.059541893E1,1.172945763E1
2.028802191E0,-4.680361271E0,-6.747759581E-1,8.475378036E0,9.705314888E0
2.031177764E0,1.067198873E0,-5.407779217E-1,1.207418346E1,1.213331202E1
2.033553337E0,3.067598581E0,-7.082754970E-1,8.858229637E0,9.401066298E0
2.035928910E0,-5.015356064E0,-2.392822690E-2,9.556933403E0,1.079302298E1
2.038304483E0,4.053441525E0,-1.067198873E0,1.119841003E1,1.195716057E1
2.040680004E0,-2.847458839E0,-5.647061467E-1,8.456234932E0,8.940627724E0
2.043055629E0,-1.296909928E0,-5.216353536E-1,1.160997581E1,1.169382817E1
2.045431254E0,4.728217602E0,-5.120640397E-1,9.796216011E0,1.088963266E1
2.047806827E0,-5.474778175E0,-4.498506486E-1,8.729017258E0,1.031364649E1
2.050182400E0,2.866601467E0,-6.556333899E-1,1.182054424E1,1.218082613E1
2.052557973E0,2.153540403E-1,-6.939185858E-1,8.312665939E0,8.344358297E0
2.054933545E0,-3.665804386E0,-2.201396823E-1,1.044706345E1,1.107374002E1
2.057309118E0,4.642076015E0,-8.470591903E-1,1.085384369E1,1.183521448E1
2.059684691E0,-4.536791801E0,-3.684946895E-1,8.532805443E0,9.670937747E0
2.062060264E0,8.087740541E-1,-5.312066078E-1,1.172961617E1,1.176946011E1
2.064435837E0,3.273381472E0,-5.312066078E-1,9.044869423E0,9.633632212E0
2.066811358E0,-5.163711071E0,-2.679961324E-1,9.298508644E0,1.063945473E1
2.069187035E0,3.996013880E0,-7.082754970E-1,1.134676456E1,1.205067829E1
2.071562608E0,-2.641676188E0,-4.977070987E-1,8.279166222E0,8.704640071E0
2.073938181E0,-1.459621787E0,-2.344966233E-1,1.142333508E1,1.151859665E1
2.076313754E0,4.532006264E0,-6.987041831E-1,9.777072906E0,1.079900102E1
2.078689327E0,-5.245067120E0,-3.637090325E-1,8.786444664E0,1.023936635E1
2.081064900E0,2.857030153E0,-5.551348329E-1,1.183490086E1,1.218752125E1
2.083440473E0,4.929214716E-1,-4.785645306E-1,8.341380119E0,8.369624716E0
2.085816045E0,-3.881158352E0,-8.135596663E-2,1.025563812E1,1.096577048E1
2.088191618E0,4.450650215E0,-8.805587292E-1,1.063370419E1,1.156111308E1
2.090567243E0,-4.354937077E0,-3.684946895E-1,8.642875671E0,9.685069187E0
2.092942816E0,1.043270707E0,-5.503492355E-1,1.182054424E1,1.187924931E1
2.095318389E0,3.153740168E0,-4.402793646E-1,8.877371788E0,9.431206329E0
2.097693962E0,-5.388636589E0,-2.823530734E-1,9.212367058E0,1.067636803E1
2.100069535E0,4.024727821E0,-7.609176040E-1,1.145204926E1,1.216251873E1
2.102445108E0,-2.364108801E0,-4.354937077E-1,8.489734650E0,8.823506084E0
2.104820681E0,-1.426122308E0,-3.254238665E-1,1.119362450E1,1.128879776E1
2.107196254E0,4.287938118E0,-9.523434043E-1,9.853643417E0,1.078831126E1
2.109571827E0,-5.326423168E0,-2.153540403E-1,8.819944382E0,1.030575470E1
2.111947400E0,2.852244616E0,-6.987041831E-1,1.166261768E1,1.202664284E1
2.114323025E0,5.168496966E-1,-4.737788737E-1,8.590232849E0,8.618799245E0
2.116698598E0,-4.096512318E0,-4.833501875E-1,1.016949654E1,1.097422892E1
2.119074170E0,4.455435753E0,-8.087740541E-1,1.075334454E1,1.166788078E1
2.121449743E0,-4.393222332E0,-2.775674164E-1,8.662017822E0,9.716377868E0
2.123825316E0,1.153340459E0,-4.833501875E-1,1.168175983E1,1.174850350E1
2.126200889E0,2.785245657E0,-7.513462901E-1,8.848658562E0,9.307033521E0
2.128576462E0,-5.278566837E0,-2.632105052E-1,9.293723106E0,1.069139078E1
2.130952035E0,3.986442566E0,-6.891329288E-1,1.154297638E1,1.223139126E1
2.133327608E0,-2.321038008E0,-3.493520916E-1,8.523234367E0,8.840519691E0
2.135703233E0,-1.574477315E0,-3.206382394E-1,1.093041420E1,1.104788406E1
2.138078806E0,4.077369690E0,-8.901300430E-1,9.796216011E0,1.064815116E1
2.140454379E0,-5.513063431E0,-7.657032460E-2,8.896514893E0,1.046650413E1
2.142829952E0,3.196810961E0,-6.843472719E-1,1.172004509E1,1.216747256E1
2.145205525E0,7.178468257E-2,-3.302095234E-1,8.346165657E0,8.353003804E0
2.147581098E0,-4.110869408E0,-4.307080805E-1,1.010728264E1,1.091979483E1
2.149956670E0,4.388436794E0,-7.417750359E-1,1.077727318E1,1.166011256E1
2.152332243E0,-4.345366001E0,-9.092725813E-2,8.839086533E0,9.849869247E0
2.154707816E0,1.450050473E0,-2.536391914E-1,1.153819084E1,1.163171643E1
2.157083441E0,2.206182480E0,-8.853443861E-1,8.590232849E0,8.913090161E0
2.159459014E0,-5.465207100E0,-1.818545163E-1,9.399007797E0,1.087395546E1
2.161834587E0,4.168296814E0,-6.412764788E-1,1.156211948E1,1.230725562E1
2.164210160E0,-2.335394859E0,-1.100698411E-1,8.537590981E0,8.851928845E0
2.166585733E0,-1.598405480E0,-2.727817893E-1,1.093519974E1,1.105476835E1
2.168961306E0,3.871587038E0,-8.853443861E-1,9.580862045E0,1.037140002E1
2.171336879E0,-5.460421085E0,-4.785645287E-3,9.054440498E0,1.057351002E1
2.173712452E0,3.498306751E0,-5.838487148E-1,1.174397373E1,1.226784205E1
2.176088025E0,-2.057827413E-1,-3.828516304E-1,8.169096947E0,8.180651981E0
2.178463545E0,-4.139583111E0,-4.689932466E-1,1.013121128E1,1.095433910E1
2.180839223E0,4.412364960E0,-6.987041831E-1,1.092562866E1,1.180366527E1
2.183214795E0,-4.153940201E0,-3.828516230E-2,8.920442581E0,9.840273410E0
2.185590368E0,1.469193101E0,-2.201396823E-1,1.133240795E1,1.142936830E1
2.187965941E0,2.091326952E0,-8.662018180E-1,8.585447311E0,8.878843368E0
2.190341514E0,-5.493920803E0,-1.770688742E-1,9.418149948E0,1.090486440E1
2.192717087E0,4.445864677E0,-6.795616150E-1,1.158126163E1,1.242389382E1
2.195092660E0,-2.359323025E0,-1.100698411E-1,8.456234932E0,8.779887797E0
2.197468233E0,-1.813759565E0,-2.727817893E-1,1.094477081E1,1.109739347E1
2.199843806E0,3.929014683E0,-9.332008362E-1,9.619147301E0,1.043245009E1
2.202219431E0,-5.139782906E0,4.785645381E-2,9.274580956E0,1.060365552E1
2.204594952E0,3.522234917E0,-5.216353536E-1,1.150947666E1,1.204766763E1
2.206970577E0,-3.302095234E-1,-6.173482537E-1,8.063812256E0,8.094147595E0
2.209346150E0,-4.244867325E0,-1.483550072E-1,1.027956581E1,1.112251685E1
2.211721723E0,4.599005222E0,-7.513462901E-1,1.085384369E1,1.181191319E1
2.214097295E0,-3.924229145E0,5.742774159E-2,8.930013657E0,9.754384462E0
2.216472868E0,1.038485050E0,-4.211367965E-1,1.124148083E1,1.129719871E1
2.218848441E0,2.364108801E0,-8.757730722E-1,8.767302513E0,9.122586380E0
2.221224014E0,-5.383851051E0,2.440679073E-1,9.466006279E0,1.089269003E1
2.223599587E0,4.498506546E0,-5.407779217E-1,1.136590767E1,1.223572062E1
2.225975160E0,-2.574677229E0,-4.067798555E-1,8.212167740E0,8.615923147E0
2.228350785E0,-1.856830359E0,-2.153540403E-1,1.110269737E1,1.125895578E1
2.230726358E0,4.110869408E0,-6.460621357E-1,9.748359680E0,1.059939432E1
2.233101931E0,-4.938786030E0,2.632105052E-1,9.159725189E0,1.040968072E1
2.235477504E0,3.273381472E0,-2.536391914E-1,1.140419292E1,1.186739126E1
2.237853025E0,-2.344966233E-1,-6.317051649E-1,7.996813297E0,8.025151898E0
2.240228598E0,-4.273581028E0,-1.004985496E-1,1.012164021E1,1.098731975E1
2.242604223E0,4.852644444E0,-6.364908218E-1,1.098784161E1,1.202854695E1
2.244979795E0,-3.981656790E0,2.440679073E-1,8.752944946E0,9.619106256E0
2.247355368E0,7.896314859E-1,-1.674975902E-1,1.106919765E1,1.109859045E1
2.249730993E0,2.445464849E0,-8.901300430E-1,8.676374435E0,9.058261597E0
2.252106566E0,-5.192425251E0,2.344966233E-1,9.523433685E0,1.084951878E1
2.254482139E0,4.651647091E0,-3.589234054E-1,1.133240795E1,1.225520774E1
2.256857712E0,-2.545963287E0,-4.259224236E-1,8.020741463E0,8.425890611E0
2.259233285E0,-2.273181438E0,-2.297109663E-1,1.098305607E1,1.121818352E1
2.261608806E0,4.331008911E0,-6.699903607E-1,9.891928673E0,1.081927808E1
2.263984431E0,-4.737788677E0,2.679961324E-1,9.221938133E0,1.037123939E1
2.266360004E0,3.072384357E0,-3.780659735E-1,1.127976608E1,1.169682018E1
2.268735577E0,-4.785645381E-2,-8.709874153E-1,8.035098076E0,8.082308483E0
2.271111150E0,-4.316651821E0,-4.307080805E-2,1.037049294E1,1.123309671E1
2.273486723E0,4.962714195E0,-6.460621357E-1,1.095912743E1,1.204775508E1
2.275862348E0,-4.091726780E0,-2.488535494E-1,8.537590981E0,9.470724148E0
2.278237920E0,4.259224236E-1,-5.216353536E-1,1.139940739E1,1.141928203E1
2.280613493E0,2.924029350E0,-8.327022791E-1,8.949156761E0,9.451494457E0
2.282989066E0,-5.000999451E0,8.135596663E-2,9.667003632E0,1.088428103E1
2.285364639E0,4.426722050E0,-5.168496966E-1,1.131326580E1,1.215948127E1
2.287740212E0,-2.584248543E0,-8.470591903E-1,7.968099594E0,8.419409774E0
2.290115785E0,-2.344966173E0,-4.402793646E-1,1.120319557E1,1.145444470E1
2.292491358E0,4.723432064E0,-9.188438654E-1,1.017906761E1,1.125915192E1
2.294866983E0,-4.771288395E0,1.292124242E-1,9.164510727E0,1.033296403E1
2.297242556E0,2.665604353E0,-7.896314859E-1,1.129412270E1,1.163125840E1
2.299618129E0,2.392822653E-1,-9.523434043E-1,8.312665939E0,8.370461695E0
2.301993702E0,-4.287938118E0,-9.092725813E-2,1.058584690E1,1.142168270E1
2.304369275E0,5.206781864E0,-5.599204898E-1,1.092562866E1,1.211583468E1
2.306744848E0,-4.278367043E0,-4.737788737E-1,8.475378036E0,9.505836304E0
2.309120420E0,1.196411327E-1,-7.992027402E-1,1.140419292E1,1.143278860E1
2.311495993E0,3.105883837E0,-8.709874153E-1,9.202795982E0,9.751747914E0
2.313871566E0,-4.972285271E0,1.674975902E-1,9.772287369E0,1.096582312E1
2.316247139E0,4.225724697E0,-4.929214716E-1,1.128933716E1,1.206436299E1
2.318622764E0,-2.723032236E0,-9.284151793E-1,8.025527000E0,8.525605136E0
2.320998337E0,-2.397608280E0,-3.876372576E-1,1.140897846E1,1.166462934E1
2.323373910E0,4.876572609E0,-7.800601721E-1,1.025563812E1,1.138277504E1
2.325749483E0,-5.082355499E0,-7.657032460E-2,8.910871506E0,1.025864667E1
2.328125056E0,2.373680115E0,-7.848458290E-1,1.146162033E1,1.173111593E1
2.330500629E0,3.014956415E-1,-7.609176040E-1,8.461020470E0,8.500515432E0
2.332876202E0,-4.254438877E0,-7.178468257E-2,1.058584690E1,1.140901213E1
2.335251775E0,5.010570526E0,-5.072783828E-1,1.090648556E1,1.201310016E1
2.337627348E0,-4.374079704E0,-5.838487148E-1,8.245666504E0,9.352244045E0
2.340002920E0,-3.349951655E-2,-4.689932466E-1,1.168175983E1,1.169121849E1
2.342378545E0,3.354737282E0,-8.709874153E-1,9.188439369E0,9.820402199E0
2.344754118E0,-5.005784988E0,2.632105052E-1,9.489934921E0,1.073247539E1
2.347129691E0,3.976871252E0,-6.699903607E-1,1.122712421E1,1.192948910E1
2.349505264E0,-2.483749866E0,-8.709874153E-1,8.169096947E0,8.582643963E0
2.351880837E0,-2.292324066E0,-3.206382394E-1,1.162433243E1,1.185253825E1
2.354256410E0,5.087141037E0,-4.929214716E-1,9.963713646E0,1.119810543E1
2.356631983E0,-5.144568920E0,2.297109663E-1,8.796015739E0,1.019260759E1
2.359007556E0,2.201396942E0,-1.033699393E0,1.134676456E1,1.160447108E1
2.361383129E0,8.709874153E-1,-9.284151793E-1,8.551948547E0,8.646178218E0
2.363758702E0,-3.823730469E0,-2.392822690E-2,1.062891865E1,1.129581333E1
2.366134327E0,5.015356064E0,-4.642075896E-1,1.086341476E1,1.197426680E1
2.368509900E0,-4.493721008E0,-5.312066078E-1,8.264809608E0,9.422461824E0
2.370885420E0,4.785645287E-3,-6.652047038E-1,1.152383423E1,1.154301848E1
2.373261045E0,4.053441525E0,-8.518448472E-1,9.504291534E0,1.036762197E1
2.375636618E0,-4.986642361E0,8.135596663E-2,9.265008926E0,1.052205357E1
2.378012191E0,3.876372576E0,-7.513462901E-1,1.121276665E1,1.188767940E1
2.380387764E0,-2.072184324E0,-7.561319470E-1,8.236095428E0,8.526368002E0
2.382763337E0,-2.249253273E0,-3.397808075E-1,1.133719349E1,1.156315474E1
2.385138910E0,5.201996326E0,-4.498506486E-1,1.019820976E1,1.145716430E1
2.387514483E0,-5.072783947E0,-1.579262912E-1,8.580661774E0,9.969244413E0
2.389890108E0,1.981257200E0,-9.379864931E-1,1.144726372E1,1.165525827E1
2.392265681E0,1.517049551E0,-8.183453679E-1,8.796015739E0,8.963315311E0
2.394641254E0,-4.177868366E0,6.699903309E-2,1.010249710E1,1.093249837E1
2.397016827E0,4.656432629E0,-5.742774606E-1,1.086820030E1,1.183764914E1
2.399392400E0,-4.321437836E0,-8.135597110E-1,8.149953842E0,9.260585943E0
2.401767920E0,-1.770688742E-1,-4.977070987E-1,1.198325539E1,1.199489372E1
2.404143545E0,4.326223373E0,-5.455635786E-1,9.375079155E0,1.033953372E1
2.406519118E0,-5.441278458E0,2.871387303E-1,9.064012527E0,1.057574031E1
2.408894691E0,3.239881754E0,-8.662018180E-1,1.104526901E1,1.154318444E1
2.411270316E0,-1.531406522E0,-9.858429432E-1,8.283951759E0,8.481801047E0
2.413645889E0,-2.498106956E0,-2.727817893E-1,1.146162033E1,1.173386931E1
2.416021462E0,5.067998409E0,-4.929214716E-1,1.016471100E1,1.136876990E1
2.418397035E0,-5.402993679E0,2.201396823E-1,8.609375954E0,1.016671808E1
2.420772608E0,1.263410330E0,-1.201196909E0,1.115055370E1,1.128600583E1
2.423148181E0,2.330609322E0,-6.939185858E-1,9.226723671E0,9.541786652E0
2.425523754E0,-4.555934429E0,1.196411327E-1,9.710074425E0,1.072643454E1
2.427899327E0,4.350151539E0,-5.359922647E-1,1.105484104E1,1.189204005E1
2.430274900E0,-3.814159393E0,-8.087740541E-1,8.173882484E0,9.056173707E0
2.432650473E0,-7.609176040E-1,-4.546363056E-1,1.178225899E1,1.181555401E1
2.435026045E0,4.723432064E0,-4.211367965E-1,9.590433121E0,1.069881181E1
2.437401670E0,-5.407779217E0,3.493520916E-1,8.810373306E0,1.034353908E1
2.439777243E0,2.880958557E0,-7.848458290E-1,1.103091240E1,1.142790154E1
2.442152816E0,-2.153540403E-1,-1.019342422E0,8.513663292E0,8.577173135E0
2.444528389E0,-3.067598581E0,-1.914258115E-2,1.085862923E1,1.128363222E1
2.446903962E0,5.106283665E0,-3.828516304E-1,1.041356373E1,1.160443957E1
2.449279535E0,-4.929214478E0,-1.674975902E-1,8.283951759E0,9.641009675E0
2.451655108E0,5.790630579E-1,-7.657032609E-1,1.144247818E1,1.148267923E1
2.454030681E0,3.881158352E0,-4.881358147E-1,9.480362892E0,1.025567878E1
2.456406254E0,-4.934000492E0,-8.135596663E-2,9.059226990E0,1.031603477E1
2.458781879E0,3.962514400E0,-5.886343718E-1,1.121276665E1,1.190689492E1
2.461157452E0,-2.292324066E0,-5.168496966E-1,8.341380119E0,8.666054785E0
2.463533025E0,-1.775474429E0,-2.440679073E-1,1.116491032E1,1.130783361E1
2.465908598E0,5.125426292E0,-3.924229145E-1,1.009771156E1,1.133083268E1
2.468284170E0,-5.216353416E0,-4.546363056E-1,8.441878319E0,9.933898866E0
2.470659743E0,2.321038008E0,-5.264210105E-1,1.183490086E1,1.207183560E1
2.473035316E0,1.665404558E0,-4.163511395E-1,8.599804878E0,8.769467747E0
2.475410889E0,-4.283152580E0,1.818545163E-1,9.839286804E0,1.073266192E1
2.477786462E0,4.359723091E0,-1.038485050E0,1.082991505E1,1.172060991E1
2.480162035E0,-3.780659676E0,-4.067798555E-1,8.575876236E0,9.381071935E0
2.482537660E0,4.785645381E-2,-5.024927258E-1,1.181575775E1,1.182653459E1
2.484913233E0,4.278367043E0,-4.259224236E-1,9.375079155E0,1.031396837E1
2.487288754E0,-5.651846886E0,-3.732803464E-1,8.963513374E0,1.060317327E1
2.489664379E0,3.440878868E0,-7.130611539E-1,1.160040379E1,1.212095176E1
2.492039952E0,-7.896314859E-1,-4.402793646E-1,8.475378036E0,8.523461542E0
2.494415525E0,-3.081955671E0,-1.722832322E-1,1.065763187E1,1.109564101E1
2.496791098E0,4.618147850E0,-8.614161611E-1,1.046620655E1,1.147217534E1
2.499166670E0,-4.876572609E0,-3.397808075E-1,8.647661209E0,9.933703025E0
2.501542243E0,1.201196909E0,-5.647061467E-1,1.183490086E1,1.190909927E1
2.503917816E0,2.608176708E0,-4.785645306E-1,8.901300430E0,9.287882380E0
2.506293389E0,-5.254638672E0,-1.770688742E-1,9.408578873E0,1.077793753E1
2.508669014E0,3.943371773E0,-7.752745152E-1,1.125105190E1,1.194727586E1
2.511044587E0,-3.192025423E0,-4.737788737E-1,8.389236450E0,8.988480458E0
2.513420160E0,-1.416550994E0,-3.493520916E-1,1.152383423E1,1.161582623E1
2.515795733E0,4.283152580E0,-6.221339107E-1,9.767501831E0,1.068347035E1
2.518171306E0,-5.675775528E0,-3.493520916E-1,8.743373871E0,1.042991186E1
2.520546879E0,2.627319336E0,-5.647061467E-1,1.183011532E1,1.213150149E1
2.522922452E0,2.488535494E-1,-4.019941986E-1,8.494520187E0,8.507667168E0
2.525298025E0,-4.149154663E0,-4.785645287E-3,1.009771156E1,1.091692659E1
2.527673598E0,4.201796532E0,-8.374879360E-1,1.065284634E1,1.148214332E1
2.530049223E0,-4.618147850E0,-3.206382394E-1,8.638090134E0,9.800341811E0
2.532424795E0,4.881358147E-1,-5.216353536E-1,1.170090294E1,1.172269208E1
2.534800368E0,3.244667530E0,-3.349951804E-1,9.111868858E0,9.678132219E0
2.537175941E0,-5.680561066E0,-1.579262912E-1,9.092725754E0,1.072247063E1
2.539551514E0,3.594019651E0,-6.795616150E-1,1.139462185E1,1.196729662E1
2.541927087E0,-2.158325911E0,-3.254238665E-1,8.518448830E0,8.793647815E0
2.544302660E0,-2.234896421E0,-1.962114573E-1,1.098305607E1,1.120985199E1
2.546678233E0,4.374079704E0,-7.609176040E-1,1.005464077E1,1.099124060E1
2.549053806E0,-5.422136307E0,-1.531406492E-1,8.738588333E0,1.028522923E1
2.551429379E0,2.191825628E0,-5.551348329E-1,1.166740322E1,1.188446769E1
2.553805004E0,1.225125194E0,-3.589234054E-1,8.638090134E0,8.731916107E0
2.556180525E0,-4.618147850E0,-2.249253243E-1,9.772287369E0,1.081089642E1
2.558556150E0,4.292723656E0,-7.848458290E-1,1.101177025E1,1.184493746E1
2.560931723E0,-4.005585194E0,-9.571290761E-2,8.647661209E0,9.530787905E0
2.563307295E0,1.244267747E-1,-4.067798555E-1,1.144726372E1,1.145516471E1
2.565682868E0,3.565305710E0,-7.561319470E-1,9.269794464E0,9.960533607E0
2.568058441E0,-5.402993679E0,-1.100698411E-1,9.078369141E0,1.056509547E1
2.570434014E0,3.570091486E0,-5.982056856E-1,1.148076344E1,1.203791229E1
2.572809587E0,-1.325623751E0,-5.359922647E-1,8.422736168E0,8.543245905E0
2.575185160E0,-2.593819857E0,-8.614161611E-2,1.084427261E1,1.115049642E1
2.577560785E0,4.474578381E0,-7.561319470E-1,1.007856941E1,1.105310584E1
2.579936358E0,-5.182853699E0,-3.302095234E-1,8.614161491E0,1.005856794E1
2.582311931E0,2.105684042E0,-5.982056856E-1,1.198325539E1,1.218155019E1
2.584687504E0,2.014756680E0,-3.254238665E-1,8.532805443E0,8.773477868E0
2.587063077E0,-4.910071850E0,-1.770688742E-1,9.547362328E0,1.073742457E1
2.589438650E0,4.158725739E0,-8.997012973E-1,1.110748291E1,1.189456341E1
2.591814223E0,-3.393022537E0,-3.541377485E-1,8.738588333E0,9.380881704E0
2.594189795E0,-8.614161611E-2,-3.445664644E-1,1.138026428E1,1.138580527E1
2.596565368E0,3.594019651E0,-7.513462901E-1,9.255437851E0,9.957139565E0
2.598940941E0,-5.627918720E0,-1.866401732E-1,9.016156197E0,1.063011647E1
2.601316514E0,3.498306751E0,-7.465606928E-1,1.162911797E1,1.216683556E1
2.603692139E0,-8.853443861E-1,-3.254238665E-1,8.456234932E0,8.508680544E0
2.606067712E0,-2.995813847E0,-3.254238665E-1,1.065763187E1,1.107546471E1
2.608443285E0,4.283152580E0,-9.140582681E-1,1.021735287E1,1.111643820E1
2.610818858E0,-5.201996326E0,-2.536391914E-1,8.877371788E0,1.029236749E1
2.613194431E0,2.244467735E0,-5.647061467E-1,1.183490086E1,1.205907985E1
2.615570004E0,1.488335729E0,-4.259224236E-1,8.389236450E0,8.530875768E0
2.617945577E0,-5.091926575E0,-3.397808075E-1,9.710074425E0,1.096944450E1
2.620321150E0,4.077369690E0,-8.087740541E-1,1.144726372E1,1.217862495E1
2.622696723E0,-3.388236761E0,-2.344966233E-1,8.719446182E0,9.357557306E0
2.625072348E0,-9.571290761E-2,-2.488535494E-1,1.122712421E1,1.123028972E1
2.627447920E0,3.105883837E0,-8.805587292E-1,9.087940216E0,9.644301709E0
2.629823493E0,-5.800201893E0,-1.292124242E-1,9.212367058E0,1.088699888E1
2.632199066E0,3.876372576E0,-7.369893789E-1,1.172961617E1,1.237551264E1
2.634574639E0,-1.177268744E0,-2.536391914E-1,8.312665939E0,8.399446979E0
2.636950212E0,-3.043670416E0,-2.153540403E-1,1.065284634E1,1.108122024E1
2.639325785E0,4.163511276E0,-8.614161611E-1,1.010728264E1,1.096512774E1
2.641701358E0,-4.910071850E0,-4.785645381E-2,9.049654961E0,1.029598712E1
2.644076931E0,2.569891453E0,-5.072783828E-1,1.159083271E1,1.188314253E1
2.646452504E0,1.186840057E0,-7.274180651E-1,8.283951759E0,8.400094232E0
2.648828077E0,-4.962714195E0,-3.349951655E-2,9.896714211E0,1.107134168E1
2.651203702E0,4.398007870E0,-7.130611539E-1,1.117448139E1,1.202996109E1
2.653579275E0,-3.254238844E0,-8.135596663E-2,8.839086533E0,9.419455397E0
2.655954848E0,3.349951655E-2,-4.450650215E-1,1.105005455E1,1.105906464E1
2.658330420E0,3.369094372E0,-9.044869542E-1,9.207581520E0,9.846240449E0
2.660705993E0,-5.474778175E0,1.627119333E-1,9.288937569E0,1.078350743E1
2.663081566E0,4.235296249E0,-6.269195080E-1,1.149512005E1,1.226656216E1
2.665457139E0,-1.430907965E0,-4.450650215E-1,8.303094864E0,8.437236799E0
2.667832712E0,-2.617748022E0,-4.737788737E-1,1.080120182E1,1.112398453E1
2.670208285E0,4.469792843E0,-7.178468108E-1,1.019820976E1,1.115785976E1
2.672583858E0,-4.632504463E0,1.914258115E-2,9.083154678E0,1.019628182E1
2.674959483E0,2.919243574E0,-3.780659735E-1,1.137069321E1,1.174553451E1
2.677335056E0,7.274180651E-1,-8.470591903E-1,8.183453560E0,8.259271062E0
2.679710629E0,-4.551148891E0,-1.435693651E-1,1.010728264E1,1.108560917E1
2.682086202E0,4.871787071E0,-8.566305041E-1,1.111226845E1,1.216349601E1
2.684461775E0,-3.579662561E0,-1.004985496E-1,8.757730484E0,9.461602784E0
2.686837348E0,4.498506486E-1,-6.221339107E-1,1.124626637E1,1.127244088E1
2.689212920E0,2.890529871E0,-9.571290612E-1,8.949156761E0,9.452971264E0
2.691588493E0,-5.221138954E0,8.614161611E-2,9.518648148E0,1.085690448E1
2.693964066E0,4.603790760E0,-5.599204898E-1,1.141854954E1,1.232443402E1
2.696339639E0,-2.421536446E0,-6.364908218E-1,8.159524918E0,8.535034048E0
2.698715212E0,-2.268395901E0,-5.216353536E-1,1.106919765E1,1.131127138E1
2.701090837E0,4.378865242E0,-8.422735929E-1,1.003071213E1,1.097720690E1
2.703466410E0,-4.828716278E0,9.092725813E-2,9.231510162E0,1.041851950E1
2.705841983E0,3.077169895E0,-6.125625968E-1,1.136590767E1,1.179101627E1
2.708217556E0,-1.770688742E-1,-1.019342422E0,8.183453560E0,8.248595306E0
2.710593129E0,-4.216153622E0,-7.178468257E-2,1.056670475E1,1.137700987E1
2.712968702E0,4.938786030E0,-6.508477330E-1,1.082512951E1,1.191631819E1
2.715344275E0,-4.316651821E0,-1.579262912E-1,8.556734085E0,9.585203277E0
2.717719848E0,8.183453679E-1,-8.422735929E-1,1.141376400E1,1.147401946E1
2.720095420E0,2.421536446E0,-7.896314859E-1,8.786444664E0,9.148167383E0
2.722470993E0,-5.020142078E0,8.135596663E-2,9.805787086E0,1.101643798E1
2.724846618E0,4.608576298E0,-4.977070987E-1,1.127976608E1,1.219507322E1
2.727222191E0,-3.077169895E0,-7.561319470E-1,8.092526436E0,8.690782140E0
2.729597764E0,-1.713261008E0,-2.823530734E-1,1.139462185E1,1.152616127E1
2.731973337E0,4.398007870E0,-8.087740541E-1,9.710074425E0,1.069028222E1
2.734348910E0,-4.924428940E0,1.962114573E-1,9.135796547E0,1.038033130E1
2.736724483E0,3.335594654E0,-7.800601721E-1,1.127019501E1,1.177930308E1
2.739100056E0,-7.369893789E-1,-7.561319470E-1,8.193024635E0,8.260783349E0
2.741475629E0,-3.560520172E0,-1.196411327E-1,1.095912743E1,1.152363189E1
2.743851202E0,5.312066078E0,-5.120640397E-1,1.054277611E1,1.181653010E1
2.746226775E0,-4.766502857E0,-3.349951804E-1,8.508877754E0,9.758727985E0
2.748602348E0,1.402194023E0,-5.407779217E-1,1.164826107E1,1.174481055E1
2.750977973E0,2.086541414E0,-7.752745152E-1,8.556734085E0,8.841515925E0
2.753353545E0,-4.599005222E0,1.100698411E-1,9.949356079E0,1.096141646E1
2.755729118E0,4.694717884E0,-6.604190469E-1,1.112183952E1,1.209015483E1
2.758104691E0,-3.474378586E0,-7.848458290E-1,8.140382767E0,8.885556883E0
2.760480264E0,-8.231309652E-1,-3.302095234E-1,1.173918819E1,1.177264296E1
2.762855837E0,4.493721008E0,-6.604190469E-1,9.413364410E0,1.045184727E1
2.765231410E0,-5.144568920E0,3.828516230E-2,8.987442017E0,1.035577950E1
2.767606983E0,3.512663603E0,-9.188438654E-1,1.143769264E1,1.200016219E1
2.769982556E0,-1.277767301E0,-6.173482537E-1,8.264809608E0,8.385754945E0
2.772358129E0,-2.775674343E0,-2.919243574E-1,1.112183952E1,1.146668663E1
2.774733754E0,5.154139996E0,-5.838487148E-1,1.046142101E1,1.167678757E1
2.777109327E0,-5.053641319E0,-5.838487148E-1,8.480163574E0,9.889051732E0
2.779484900E0,1.990828395E0,-5.120640397E-1,1.183968639E1,1.201681244E1
2.781860473E0,1.502692580E0,-7.369893789E-1,8.394021988E0,8.559254843E0
2.784236045E0,-4.350151539E0,-6.699903309E-2,1.021256733E1,1.110066839E1
2.786611618E0,4.642076015E0,-9.954141974E-1,1.096869946E1,1.195207459E1
2.788987191E0,-3.924229145E0,-5.694918036E-1,8.422736168E0,9.309477958E0
2.791362764E0,-1.292124242E-1,-5.312066078E-1,1.182054424E1,1.183317973E1
2.793738337E0,3.871587038E0,-6.125625968E-1,9.288937569E0,1.008210198E1
2.796113910E0,-5.321637630E0,-2.775674164E-1,9.092725754E0,1.053919031E1
2.798489535E0,3.775874138E0,-8.757730722E-1,1.145683479E1,1.209476198E1
2.800865108E0,-2.057827473E0,-6.652047038E-1,8.288737297E0,8.566231212E0
2.803240681E0,-2.120040894E0,-3.445664644E-1,1.139940739E1,1.159999087E1
2.805616254E0,4.632504463E0,-7.226324677E-1,1.004985523E1,1.108971981E1
2.807991827E0,-5.312066078E0,-5.264210105E-1,8.700303078E0,1.020737178E1
2.810367400E0,2.507678032E0,-6.173482537E-1,1.185882950E1,1.213677902E1
2.812742973E0,7.465606928E-1,-6.460621357E-1,8.389236450E0,8.447131902E0
2.815118545E0,-4.101297855E0,-1.627119333E-1,1.033220863E1,1.111762810E1
2.817494118E0,4.479363918E0,-8.614161611E-1,1.082034397E1,1.174251177E1
2.819869691E0,-4.498506546E0,-3.828516304E-1,8.580661774E0,9.695921462E0
2.822245316E0,8.805587292E-1,-6.077769399E-1,1.175354481E1,1.180214354E1
2.824620889E0,3.158525944E0,-5.551348329E-1,9.020941734E0,9.574019563E0
2.826996462E0,-5.316852093E0,-3.349951804E-1,9.308079720E0,1.072480704E1
2.829372035E0,4.034298897E0,-7.752745152E-1,1.154297638E1,1.225222110E1
2.831747608E0,-2.732603550E0,-4.402793646E-1,8.518448830E0,8.956837530E0
2.834123181E0,-1.076770186E0,-2.009970993E-1,1.133240795E1,1.138522305E1
2.836498754E0,4.067798615E0,-9.379864931E-1,9.509077072E0,1.038505421E1
2.838874327E0,-5.407779217E0,-2.440679073E-1,8.915657043E0,1.043036844E1
2.841249900E0,3.316452265E0,-6.939185858E-1,1.173440266E1,1.221378665E1
2.843625473E0,-2.584248483E-1,-3.924229145E-1,8.470592499E0,8.483614585E0
2.846001045E0,-3.455235958E0,-2.871387303E-1,1.056670475E1,1.112098707E1
2.848376670E0,4.455435753E0,-8.997012973E-1,1.045663452E1,1.140182335E1
2.850752243E0,-4.819144726E0,-1.914258152E-1,8.834300995E0,1.006507197E1
2.853127816E0,2.191825628E0,-5.072783828E-1,1.165304661E1,1.186823181E1
2.855503389E0,1.694118381E0,-6.556333899E-1,8.408378601E0,8.602367286E0
2.857878962E0,-4.905286312E0,-2.536391914E-1,9.872786522E0,1.102715196E1
2.860254535E0,4.421936035E0,-7.657032609E-1,1.123190975E1,1.209527248E1
2.862630108E0,-3.330809116E0,-3.158525825E-1,8.762516975E0,9.379539219E0
2.865005681E0,8.135596663E-2,-2.823530734E-1,1.131805134E1,1.132186505E1
2.867381254E0,3.215953588E0,-1.004985452E0,9.064012527E0,9.669988435E0
2.869756827E0,-5.474778175E0,-2.392822690E-2,9.269794464E0,1.076581897E1
2.872132400E0,4.063013077E0,-8.135597110E-1,1.154297638E1,1.226418600E1
2.874508025E0,-1.646261930E0,-3.732803464E-1,8.432307243E0,8.599611736E0
2.876883598E0,-2.421536446E0,-4.881358147E-1,1.097348499E1,1.124808820E1
2.879259170E0,4.316651821E0,-8.614161611E-1,9.868000984E0,1.080522856E1
2.881634743E0,-5.168497086E0,-3.828516230E-2,8.997013092E0,1.037598537E1
2.884010316E0,3.292523861E0,-4.785645306E-1,1.155254745E1,1.202210839E1
2.886385889E0,-7.657032460E-2,-8.662018180E-1,8.159524918E0,8.205730649E0
2.888761462E0,-4.350151539E0,-1.244267747E-1,1.043270683E1,1.130401134E1
2.891137035E0,4.527220249E0,-8.087740541E-1,1.077248764E1,1.171308365E1
2.893512608E0,-4.149154663E0,-6.699903309E-2,9.001798630E0,9.912232436E0
2.895888181E0,1.225125194E0,-4.929214716E-1,1.125105190E1,1.132828638E1
2.898263806E0,1.986042738E0,-9.427721500E-1,8.633303642E0,8.908822417E0
2.900639379E0,-5.383851051E0,8.614161611E-2,9.777072906E0,1.116173943E1
2.903014952E0,4.579862595E0,-6.460621357E-1,1.133240795E1,1.223993495E1
2.905390525E0,-3.364308596E0,-3.541377485E-1,8.480163574E0,9.130014245E0
2.907766098E0,-1.167697430E0,-5.647061467E-1,1.117926693E1,1.125426228E1
2.910141670E0,3.503092289E0,-7.800601721E-1,9.394221306E0,1.005641802E1
2.912517243E0,-5.235496044E0,1.292124242E-1,9.427721024E0,1.078466682E1
2.914892816E0,3.842873096E0,-3.972085714E-1,1.133240795E1,1.197284086E1
2.917268337E0,-2.029113531E0,-7.417750359E-1,8.011170387E0,8.297372048E0
2.919643962E0,-3.239881754E0,-3.924229145E-1,1.106441212E1,1.153568572E1
2.922019587E0,4.766502857E0,-8.231309652E-1,1.029392338E1,1.137373960E1
2.924395160E0,-4.867001057E0,2.105683982E-1,8.997013092E0,1.023124054E1
2.926770733E0,2.440679073E0,-5.599204898E-1,1.129412270E1,1.156838938E1
2.929146306E0,9.092725813E-2,-9.379864931E-1,8.221738815E0,8.275571012E0
2.931521879E0,-4.249652863E0,-6.699903309E-2,1.065763187E1,1.147384659E1
2.933897452E0,5.139782906E0,-4.642075896E-1,1.078205872E1,1.195347845E1
2.936273025E0,-4.436293125E0,-4.785645381E-2,8.465806961E0,9.557869764E0
2.938648598E0,3.445664644E-1,-8.949156404E-1,1.124148083E1,1.128230877E1
2.941024170E0,2.847458839E0,-7.369893789E-1,9.035298347E0,9.501988814E0
2.943399743E0,-4.761716843E0,2.871387303E-1,9.748359680E0,1.085296791E1
2.945775316E0,4.565505505E0,-3.732803464E-1,1.128933716E1,1.218328003E1
2.948150941E0,-3.388236761E0,-7.513462901E-1,7.948956966E0,8.673556736E0
2.950526462E0,-1.378265858E0,-3.397808075E-1,1.160040379E1,1.168693440E1
2.952902087E0,4.780859470E0,-7.034898400E-1,9.781859398E0,1.091037527E1
2.955277660E0,-5.101497650E0,3.828516230E-2,8.906085968E0,1.026377666E1
2.957653233E0,3.345165968E0,-7.178468108E-1,1.143290615E1,1.193385028E1
2.960028806E0,-9.284151793E-1,-6.221339107E-1,8.159524918E0,8.235705934E0
2.962404379E0,-3.043670416E0,-1.387837082E-1,1.116491032E1,1.157317644E1
2.964779952E0,5.278566837E0,-5.120640397E-1,1.039920712E1,1.167343078E1
2.967155525E0,-4.929214478E0,-4.881358147E-1,8.508877754E0,9.845630126E0
2.969531098E0,1.789831281E0,-4.642075896E-1,1.178704453E1,1.193119455E1
2.971906618E0,1.871187329E0,-6.987041831E-1,8.422736168E0,8.656327981E0
2.974282295E0,-4.417150497E0,1.052841991E-1,1.002592659E1,1.095634553E1
2.976657868E0,4.613361835E0,-8.614161611E-1,1.100219822E1,1.196133399E1
2.979033441E0,-3.785445452E0,-5.407779217E-1,8.283951759E0,9.123918828E0
2.981409014E0,-1.483550072E-1,-4.163511395E-1,1.183011532E1,1.183836923E1
2.983784587E0,4.163511276E0,-5.024927258E-1,9.154939651E0,1.006976887E1
2.986160160E0,-5.398207664E0,-1.004985496E-1,8.987442017E0,1.048450571E1
2.988535733E0,3.689732552E0,-7.800601721E-1,1.143290615E1,1.203885224E1
2.990911254E0,-1.885544300E0,-5.312066078E-1,8.322237015E0,8.549683427E0
2.993286879E0,-2.014756680E0,-1.914258152E-1,1.136112213E1,1.153997333E1
2.995662452E0,4.603790760E0,-6.125625968E-1,9.791430473E0,1.083707677E1
2.998038025E0,-5.383851051E0,-3.972085714E-1,8.614161491E0,1.016599257E1
3.000413650E0,2.622533560E0,-5.934200287E-1,1.193061352E1,1.222985562E1
3.002789223E0,7.513462901E-1,-4.785645306E-1,8.327022552E0,8.374535799E0
3.005164795E0,-4.005585194E0,2.392822690E-2,1.026999474E1,1.102352381E1
3.007540368E0,4.201796532E0,-8.901300430E-1,1.056191921E1,1.140182279E1
3.009915941E0,-4.584648132E0,-4.402793646E-1,8.532805443E0,9.696474263E0
3.012291514E0,1.143769264E0,-4.881358147E-1,1.192582798E1,1.199049030E1
3.014667087E0,2.900100946E0,-4.785645306E-1,8.618947029E0,9.106363566E0
3.017042660E0,-5.608776093E0,-2.009970993E-1,9.394221306E0,1.094304176E1
3.019418233E0,4.019941807E0,-7.800601721E-1,1.127498055E1,1.199556636E1
3.021793806E0,-2.861815929E0,-3.493520916E-1,8.551948547E0,9.024846883E0
3.024169379E0,-1.009771109E0,-1.962114573E-1,1.128455162E1,1.133133893E1
3.026544952E0,3.723232031E0,-8.470591903E-1,9.336793900E0,1.008740236E1
3.028920577E0,-5.642275810E0,-2.057827413E-1,8.963513374E0,1.059349776E1
3.031296150E0,3.340380430E0,-7.322037220E-1,1.172961617E1,1.221794414E1
3.033671723E0,-4.737788737E-1,-3.445664644E-1,8.480163574E0,8.500374504E0
3.036047295E0,-3.507878065E0,-3.924229145E-1,1.051406288E1,1.109074941E1
3.038422868E0,4.369294167E0,-8.757730722E-1,1.028435135E1,1.120828232E1
3.040798441E0,-4.938786030E0,-9.571290575E-3,8.839086533E0,1.012527283E1
3.043174014E0,2.244467735E0,-5.312066078E-1,1.170568848E1,1.193075683E1
3.045549587E0,1.521835208E0,-7.752745152E-1,8.336593628E0,8.509748897E0
3.047925160E0,-5.010570526E0,-2.105683982E-1,9.949356079E0,1.114180607E1
3.050300733E0,4.326223373E0,-7.896314859E-1,1.124626637E1,1.207552209E1
3.052676358E0,-3.292523861E0,-2.632105052E-1,8.729017258E0,9.333045346E0
3.055051879E0,4.785645381E-2,-3.206382394E-1,1.125105190E1,1.125572157E1
3.057427504E0,3.273381472E0,-1.033699393E0,9.087940216E0,9.714639369E0
3.059803077E0,-5.556134224E0,-5.264209956E-2,9.245866776E0,1.078700381E1
3.062178650E0,4.225724697E0,-8.279166222E-1,1.163868904E1,1.240972513E1
3.064554223E0,-1.593619823E0,-3.014956415E-1,8.312665939E0,8.469411950E0
3.066929795E0,-2.569891453E0,-4.833501875E-1,1.082991505E1,1.114114130E1
3.069305368E0,4.302295208E0,-9.044869542E-1,1.014556789E1,1.105714197E1
3.071680941E0,-4.986642361E0,-4.785645381E-2,9.025727272E0,1.031177216E1
3.074056514E0,3.297309637E0,-4.450650215E-1,1.151904774E1,1.198994556E1
3.076432139E0,1.435693651E-1,-8.662018180E-1,8.159524918E0,8.206629310E0
3.078807712E0,-4.465006828E0,-1.722832322E-1,1.039442158E1,1.131414899E1
3.081183285E0,4.737788677E0,-8.614161611E-1,1.093998528E1,1.195290580E1
3.083558858E0,-3.842873096E0,-1.052841991E-1,8.915657043E0,9.709155417E0
3.085934379E0,9.906286001E-1,-4.594219327E-1,1.130369377E1,1.135631571E1
3.088310004E0,2.383251429E0,-1.172483087E0,8.733802795E0,9.128741163E0
3.090685577E0,-5.235496044E0,7.657032460E-2,9.753145218E0,1.106978426E1
3.093061150E0,4.694717884E0,-6.317051649E-1,1.139462185E1,1.234005002E1
3.095436723E0,-2.833101988E0,-4.402793646E-1,8.264809608E0,8.747993522E0
3.097812295E0,-1.622333765E0,-5.024927258E-1,1.124626637E1,1.137378446E1
3.100187868E0,4.168296814E0,-8.518448472E-1,9.633503914E0,1.053113174E1
3.102563493E0,-5.024927616E0,6.221338734E-2,9.408578873E0,1.066654229E1
3.104939066E0,3.651447296E0,-5.312066078E-1,1.142333508E1,1.200449216E1
3.107314639E0,-1.052842021E0,-9.332008362E-1,7.987242222E0,8.110202120E0
3.109690212E0,-3.637090445E0,-1.292124242E-1,1.097348499E1,1.156124974E1
3.112065785E0,5.015356064E0,-8.901300430E-1,1.054277611E1,1.170881104E1
3.114441358E0,-4.503292084E0,-1.818545163E-1,8.800801277E0,9.887710239E0
3.116816931E0,1.770688772E0,-5.838487148E-1,1.158126163E1,1.173038103E1
3.119192504E0,1.469193101E0,-8.279166222E-1,8.408378601E0,8.575826782E0
3.121568025E0,-4.800002098E0,9.571290575E-3,1.018863869E1,1.126270261E1
3.123943650E0,4.948357105E0,-5.647061467E-1,1.118405342E1,1.224288291E1
3.126319223E0,-3.761517286E0,-6.460621357E-1,8.250452042E0,9.090454745E0
3.128694848E0,-4.642075896E-1,-4.211367965E-1,1.160040379E1,1.161732383E1
3.131070420E0,3.579662561E0,-8.901300430E-1,9.054440498E0,9.776973370E0
3.133445993E0,-5.048855782E0,1.818545163E-1,9.537791252E0,1.079321443E1
3.135821566E0,4.015156269E0,-7.274180651E-1,1.128455162E1,1.199965509E1
3.138197139E0,-2.230110645E0,-9.284151793E-1,8.049455643E0,8.404111159E0
3.140572712E0,-2.416750908E0,-2.775674164E-1,1.158604717E1,1.183867466E1
3.142948285E0,5.072783947E0,-6.412764788E-1,9.939785004E0,1.117782172E1
3.145323858E0,-5.158925533E0,1.100698411E-1,8.800801277E0,1.020199643E1
3.147699431E0,2.545963287E0,-9.571290612E-1,1.133719349E1,1.165890138E1
3.150075004E0,9.092725813E-2,-7.561319470E-1,8.322237015E0,8.357010962E0
3.152450577E0,-3.641875982E0,-8.614161611E-2,1.094477081E1,1.153510681E1
3.154826202E0,5.158925533E0,-4.498506486E-1,1.057627583E1,1.177601327E1
3.157201775E0,-4.876572609E0,-5.838487148E-1,8.264809608E0,9.613995922E0
3.159577348E0,9.667003751E-1,-4.450650215E-1,1.177747345E1,1.182545869E1
3.161952920E0,2.751745939E0,-7.226324677E-1,8.705088615E0,9.158213319E0
3.164328493E0,-4.819144726E0,7.657032460E-2,9.662218094E0,1.079761443E1
3.166704066E0,4.335794449E0,-7.848458290E-1,1.119841003E1,1.203409672E1
3.169079639E0,-3.316452265E0,-5.024927258E-1,8.135597229E0,8.799960047E0
3.171455212E0,-1.019342422E0,-3.637090325E-1,1.168175983E1,1.173178827E1
3.173830785E0,4.584648132E0,-5.168496966E-1,9.489934921E0,1.055201388E1
3.176206306E0,-5.493920803E0,-1.292124242E-1,8.796015739E0,1.037158399E1
3.178581983E0,3.373879910E0,-5.886343718E-1,1.152383423E1,1.202199282E1
3.180957556E0,-1.253839016E0,-5.264210105E-1,8.193024635E0,8.305111922E0
3.183333129E0,-2.718246460E0,-1.148554832E-1,1.107398319E1,1.140329599E1
3.185708702E0,4.766502857E0,-6.747759581E-1,1.008335495E1,1.117358130E1
3.188084275E0,-5.178068161E0,-2.775674164E-1,8.494520187E0,9.952201101E0
3.190459848E0,2.057827473E0,-4.498506486E-1,1.176790142E1,1.195493720E1
3.192835420E0,1.469193101E0,-4.737788737E-1,8.374878883E0,8.515960962E0
3.195210993E0,-4.484149456E0,-4.785645381E-2,9.915857315E0,1.088274381E1
3.197586566E0,4.398007870E0,-7.226324677E-1,1.083948612E1,1.172003116E1
3.199962139E0,-4.254438877E0,-2.632105052E-1,8.465806961E0,9.478365757E0
3.202337712E0,5.599204898E-1,-4.546363056E-1,1.163868904E1,1.166101572E1
3.204713285E0,3.412165165E0,-4.259224236E-1,8.915657043E0,9.555795181E0
3.207088910E0,-5.584847927E0,-1.100698411E-1,9.078369141E0,1.065924144E1
3.209464483E0,3.852444410E0,-7.800601721E-1,1.137069321E1,1.203089713E1
3.211840056E0,-2.349751949E0,-4.307080805E-1,8.580661774E0,8.906997258E0
3.214215629E0,-1.387837172E0,-1.818545163E-1,1.114576817E1,1.123331256E1
3.216591202E0,4.106083870E0,-8.374879360E-1,9.466006279E0,1.035212952E1
3.218966775E0,-5.637490273E0,-1.004985496E-1,8.824729919E0,1.047221346E1
3.221342348E0,3.292523861E0,-6.747759581E-1,1.170568848E1,1.217863616E1
3.223717920E0,-1.100698411E-1,-3.684946895E-1,8.365307808E0,8.374143444E0
3.226093493E0,-3.603590965E0,-2.584248483E-1,1.046142101E1,1.106769989E1
3.228469066E0,4.417150497E0,-8.949156404E-1,1.045184898E1,1.138214565E1
3.230844639E0,-4.819144726E0,-1.818545163E-1,8.829515457E0,1.006069432E1
3.233220264E0,2.244467735E0,-4.737788737E-1,1.164826107E1,1.187198753E1
3.235595837E0,1.698904037E0,-8.327022791E-1,8.461020470E0,8.669978974E0
3.237971410E0,-5.106283665E0,-2.488535494E-1,9.925428391E0,1.116468493E1
3.240346983E0,4.335794449E0,-7.609176040E-1,1.124148083E1,1.207265506E1
3.242722556E0,-3.187239647E0,-3.062812984E-1,8.776873589E0,9.342687771E0
3.245098129E0,5.742774159E-2,-3.014956415E-1,1.130369377E1,1.130785968E1
3.247473702E0,3.278167009E0,-1.057627559E0,8.987442017E0,9.624919168E0
3.249849275E0,-5.556134224E0,-8.614161611E-2,9.241081238E0,1.078311784E1
3.252224848E0,4.354937077E0,-8.327022791E-1,1.168654537E1,1.249936849E1
3.254600420E0,-1.832902193E0,-3.876372576E-1,8.350951195E0,8.558514997E0
3.256975993E0,-2.282752752E0,-5.216353536E-1,1.102134132E1,1.126734344E1
3.259351618E0,4.311866283E0,-9.044869542E-1,9.887143135E0,1.082431923E1
3.261727191E0,-5.029713154E0,-1.435693540E-2,9.188439369E0,1.047500065E1
3.264102764E0,3.603590965E0,-4.354937077E-1,1.152383423E1,1.208198154E1
3.266478337E0,-3.349951804E-1,-8.614161611E-1,8.092526436E0,8.145136198E0
3.268853910E0,-4.077369690E0,-2.919243574E-1,1.065284634E1,1.141022780E1
3.271229483E0,4.881358147E0,-8.757730722E-1,1.080120182E1,1.188531012E1
3.273605056E0,-4.177868366E0,0.000000000E0,8.949156761E0,9.876334888E0
3.275980629E0,1.569691658E0,-4.211367965E-1,1.141854954E1,1.153362743E1
3.278356202E0,1.694118381E0,-1.100698471E0,8.437092781E0,8.675604233E0
3.280731775E0,-5.005784988E0,8.614161611E-2,1.004985523E1,1.122786239E1
3.283107348E0,4.867001057E0,-5.647061467E-1,1.127976608E1,1.229795573E1
3.285482973E0,-3.517449379E0,-4.163511395E-1,8.317451477E0,9.040232158E0
3.287858545E0,-8.566305041E-1,-6.364908218E-1,1.136590767E1,1.141590091E1
3.290234118E0,3.723232031E0,-8.422735929E-1,9.312865257E0,1.006485672E1
3.292609691E0,-5.154139996E0,2.105683982E-1,9.480362892E0,1.079290409E1
3.294985264E0,4.015156269E0,-4.354937077E-1,1.139462185E1,1.208919111E1
3.297360837E0,-2.143969059E0,-9.092726111E-1,7.920242786E0,8.255520929E0
3.299736410E0,-2.799602509E0,-1.866401732E-1,1.131326580E1,1.165601097E1
3.302111983E0,4.852644444E0,-7.274180651E-1,1.012164021E1,1.124832857E1
3.304487556E0,-4.934000492E0,-9.571290575E-3,8.824729919E0,1.011040606E1
3.306863129E0,2.589034081E0,-6.699903607E-1,1.147597694E1,1.178346432E1
3.309238702E0,1.435693651E-1,-7.369893789E-1,8.279166222E0,8.313143739E0
3.311614327E0,-4.082155228E0,-1.148554832E-1,1.067198944E1,1.142665925E1
3.313989900E0,5.125426292E0,-4.402793646E-1,1.076291656E1,1.192913298E1
3.316365473E0,-4.627718925E0,-4.642075896E-1,8.317451477E0,9.529494751E0
3.318741045E0,7.704889178E-1,-4.546363056E-1,1.169611740E1,1.173028174E1
3.321116618E0,2.536391973E0,-8.279166222E-1,8.614161491E0,9.017899333E0
3.323492191E0,-4.780859470E0,2.775674164E-1,9.887143135E0,1.098586639E1
3.325867764E0,4.407579422E0,-6.747759581E-1,1.115533924E1,1.201347879E1
3.328243337E0,-3.450450182E0,-7.369893789E-1,8.035098076E0,8.775623106E0
3.330618910E0,-1.071984529E0,-3.397808075E-1,1.181575775E1,1.186915048E1
3.332994483E0,4.508078098E0,-5.934200287E-1,9.341579437E0,1.038941874E1
3.335370056E0,-5.350351334E0,-2.871387079E-2,8.891729355E0,1.037737610E1
3.337745629E0,3.330809116E0,-8.374879360E-1,1.149990559E1,1.200181253E1
3.340121254E0,-1.502692580E0,-6.987041831E-1,8.197810173E0,8.363633430E0
3.342496827E0,-2.560320139E0,-2.488535494E-1,1.139940739E1,1.168604536E1
3.344872400E0,4.886143684E0,-6.317051649E-1,1.015513897E1,1.128717409E1
3.347247973E0,-5.446064472E0,-5.742774606E-1,8.489734650E0,1.010272276E1
3.349623545E0,2.263610125E0,-5.982056856E-1,1.185404301E1,1.208305079E1
3.351999118E0,1.048056364E0,-6.891329288E-1,8.394021988E0,8.487221658E0
3.354374691E0,-4.173082829E0,-3.349951655E-2,1.034177971E1,1.115204690E1
3.356750264E0,4.378865242E0,-1.067198873E0,1.068634605E1,1.159790353E1
3.359125837E0,-4.479363918E0,-5.790630579E-1,8.480163574E0,9.607975301E0
3.361501410E0,8.039883971E-1,-5.647061467E-1,1.202154064E1,1.206162219E1
3.363876983E0,3.153740168E0,-5.790630579E-1,8.776873589E0,9.344244274E0
3.366252556E0,-5.441278458E0,-1.387837082E-1,9.413364410E0,1.087373909E1
3.368628181E0,3.924229145E0,-9.667003751E-1,1.127498055E1,1.197744840E1
3.371003754E0,-2.952743053E0,-6.125625968E-1,8.504091263E0,9.022942573E0
3.373379327E0,-8.757730722E-1,-3.014956415E-1,1.161954689E1,1.165640373E1
3.375754900E0,4.072584152E0,-7.178468108E-1,9.312865257E0,1.018973528E1
3.378130420E0,-5.833701611E0,-3.637090325E-1,8.743373871E0,1.051717383E1
3.380506045E0,3.340380430E0,-7.322037220E-1,1.195932770E1,1.243864071E1
3.382881618E0,-6.077769399E-1,-4.354937077E-1,8.475378036E0,8.508294802E0
3.385257191E0,-3.034099102E0,-8.135596663E-2,1.075334454E1,1.117348624E1
3.387632764E0,4.130012035E0,-1.038485050E0,9.968499184E0,1.084003813E1
3.390008337E0,-5.221138954E0,-3.972085714E-1,8.867800713E0,1.029834725E1
3.392383962E0,2.703889608E0,-5.120640397E-1,1.196889877E1,1.228119564E1
3.394759535E0,1.172483087E0,-4.594219327E-1,8.231309891E0,8.327079177E0
3.397135108E0,-4.929214478E0,-6.221338734E-2,1.016471100E1,1.129700737E1
3.399510681E0,4.206582069E0,-9.619147182E-1,1.076291656E1,1.159573135E1
3.401886254E0,-3.689732552E0,-3.493520916E-1,9.020941734E0,9.752618262E0
3.404261827E0,7.848458290E-1,-4.115654826E-1,1.151904774E1,1.155308746E1
3.406637400E0,2.804388046E0,-8.853443861E-1,8.676374435E0,9.161217187E0
3.409012973E0,-5.704489231E0,-5.742774159E-2,9.451649666E0,1.103984496E1
3.411388545E0,4.316651821E0,-8.805587292E-1,1.160997581E1,1.241774557E1
3.413764118E0,-2.153540373E0,-2.201396823E-1,8.561519623E0,8.830957812E0
3.416139691E0,-1.641476393E0,-3.780659735E-1,1.097827053E1,1.110674581E1
3.418515316E0,4.015156269E0,-1.024128079E0,9.580862045E0,1.043854567E1
3.420890889E0,-5.297709465E0,6.699903309E-2,9.126225471E0,1.055263976E1
3.423266462E0,3.809373617E0,-4.689932466E-1,1.156690502E1,1.218706584E1
3.425642035E0,-6.317051649E-1,-5.647061467E-1,8.202595711E0,8.246242832E0
3.428017608E0,-3.708875179E0,-5.264210105E-1,1.060977554E1,1.125167593E1
3.430393181E0,4.847858906E0,-7.848458290E-1,1.054756260E1,1.163480966E1
3.432768754E0,-4.273581028E0,5.264209956E-2,9.097511292E0,1.005141670E1
3.435144327E0,2.215753794E0,-3.637090325E-1,1.141376400E1,1.163253445E1
3.437519900E0,1.359123230E0,-1.100698471E0,8.140382767E0,8.326138641E0
3.439895473E0,-4.809573650E0,-1.914258115E-2,1.005942631E1,1.115008622E1
3.442271045E0,5.000999451E0,-7.992027402E-1,1.134676456E1,1.242569059E1
3.444646618E0,-3.383451223E0,-1.866401732E-1,8.451449394E0,9.105469433E0
3.447022191E0,-1.674975902E-1,-6.604190469E-1,1.127498055E1,1.129554758E1
3.449397816E0,3.460021496E0,-9.140582681E-1,9.164510727E0,9.838470823E0
3.451773389E0,-5.072783947E0,1.292124242E-1,9.585647583E0,1.084594267E1
3.454148962E0,4.541577339E0,-4.833501875E-1,1.130848026E1,1.219595334E1
3.456524535E0,-2.330609322E0,-7.369893789E-1,7.992027760E0,8.357475747E0
3.458900056E0,-2.455035925E0,-3.828516304E-1,1.117448139E1,1.144739320E1
3.461275681E0,4.862215519E0,-9.188438654E-1,1.004028416E1,1.119342306E1
3.463651254E0,-4.819144726E0,1.387837082E-1,9.059226990E0,1.026221275E1
3.466026827E0,2.938386202E0,-5.551348329E-1,1.138026428E1,1.176659268E1
3.468402400E0,-3.062812984E-1,-1.057627559E0,8.106883049E0,8.181316340E0
3.470777973E0,-3.933800459E0,-1.483550072E-1,1.083948612E1,1.153218343E1
3.473153598E0,5.182853699E0,-5.503492355E-1,1.063848972E1,1.184661641E1
3.475529170E0,-4.795216560E0,-9.571290575E-3,8.475378036E0,9.737875863E0
3.477904743E0,7.130611539E-1,-9.714859724E-1,1.134197903E1,1.140581998E1
3.480280316E0,2.292324066E0,-9.044869542E-1,8.752944946E0,9.093233281E0
3.482655889E0,-4.833501816E0,1.579262912E-1,1.000678444E1,1.111410884E1
3.485031462E0,4.527220249E0,-4.307080805E-1,1.118883896E1,1.207772122E1
3.487407035E0,-4.005585194E0,-7.513462901E-1,7.944170952E0,8.928554536E0
3.489782608E0,-1.167697430E0,-3.445664644E-1,1.164826107E1,1.171171334E1
3.492158181E0,4.297509670E0,-8.231309652E-1,9.509077072E0,1.046750595E1
3.494533754E0,-5.364708424E0,9.092725813E-2,9.001798630E0,1.047953925E1
3.496909327E0,3.282952785E0,-7.178468108E-1,1.146640587E1,1.194870481E1
3.499284900E0,-1.689332843E0,-6.891329288E-1,8.039883614E0,8.244299738E0
3.501660525E0,-2.866601467E0,-2.392822653E-1,1.127498055E1,1.163614396E1
3.504036098E0,4.981856823E0,-5.120640397E-1,1.022692394E1,1.138732103E1
3.506411670E0,-5.297709465E0,-3.493520916E-1,8.451449394E0,9.980719880E0
3.508787243E0,2.053041935E0,-4.785645306E-1,1.167697430E1,1.186573782E1
3.511162816E0,1.024128079E0,-7.800601721E-1,8.384450912E0,8.482708842E0
3.513538389E0,-4.220939159E0,1.292124242E-1,1.034177971E1,1.117073994E1
3.515913962E0,4.570291042E0,-6.939185858E-1,1.084427261E1,1.178844060E1
3.518289535E0,-4.374079704E0,-5.982056856E-1,8.226524353E0,9.336280107E0
3.520665108E0,3.302095234E-1,-4.067798555E-1,1.201196957E1,1.202339058E1
3.523040681E0,3.771088600E0,-5.551348329E-1,8.886942863E0,9.669903690E0
3.525416254E0,-5.312066078E0,2.584248483E-1,9.288937569E0,1.070369985E1
3.527791879E0,3.694518089E0,-1.024128079E0,1.117448139E1,1.181386205E1
3.530167452E0,-2.522035122E0,-6.317051649E-1,8.288737297E0,8.686937237E0
3.532543025E0,-1.220339537E0,-2.632105052E-1,1.172961617E1,1.179586384E1
3.534918598E0,4.728217602E0,-4.211367965E-1,9.566504478E0,1.067948528E1
3.537294170E0,-5.675775528E0,1.914258115E-2,8.638090134E0,1.033592741E1
3.539669743E0,2.880958557E0,-8.805587292E-1,1.153819084E1,1.192498024E1
3.542045316E0,2.775674164E-1,-7.513462901E-1,8.561519623E0,8.598905929E0
3.544420889E0,-3.278167009E0,-1.196411327E-1,1.063848972E1,1.113275153E1
3.546796462E0,4.603790760E0,-6.843472719E-1,1.044706345E1,1.143697317E1
3.549172035E0,-5.072783947E0,-5.264210105E-1,8.398807526E0,9.825997349E0
3.551547608E0,1.741974831E0,-5.838487148E-1,1.201196957E1,1.215165703E1
3.553923181E0,2.742174864E0,-4.737788737E-1,8.652446747E0,9.088939658E0
3.556298806E0,-5.024927616E0,2.967100143E-1,9.681360245E0,1.091176753E1
3.558674379E0,3.909872293E0,-9.523434043E-1,1.082991505E1,1.155340293E1
3.561049952E0,-3.292523861E0,-7.369893789E-1,8.456234932E0,9.104492075E0
3.563425473E0,-1.770688742E-1,-2.632105052E-1,1.206461143E1,1.206878131E1
3.565801098E0,4.149154663E0,-5.072783828E-1,8.987442017E0,9.911958927E0
3.568176670E0,-6.025127411E0,9.571290575E-3,8.858229637E0,1.071309872E1
3.570552243E0,3.302095175E0,-9.571290612E-1,1.163868904E1,1.213585643E1
3.572927816E0,-5.886343718E-1,-3.541377485E-1,8.719446182E0,8.746464754E0
3.575303389E0,-2.890529871E0,-3.349951804E-1,1.054756260E1,1.094159319E1
3.577678962E0,4.316651821E0,-8.374879360E-1,1.026042366E1,1.116293701E1
3.580054535E0,-5.350351334E0,-1.387837082E-1,8.815158844E0,1.031273706E1
3.582430108E0,2.464607239E0,-5.647061467E-1,1.172004509E1,1.198968885E1
3.584805733E0,1.435693622E0,-5.359922647E-1,8.427521706E0,8.565723903E0
3.587181306E0,-4.977071285E0,-3.541377485E-1,9.839286804E0,1.103214471E1
3.589556879E0,4.254438877E0,-8.183453679E-1,1.128455162E1,1.208764016E1
3.591932452E0,-3.527020693E0,-2.871387303E-1,8.729017258E0,9.419026802E0
3.594308025E0,1.722832322E-1,-1.531406492E-1,1.129412270E1,1.129647472E1
3.596683598E0,2.928814888E0,-9.379864931E-1,8.843872070E0,9.363324650E0
3.599059170E0,-5.723631859E0,-2.344966233E-1,9.341579437E0,1.095810461E1
3.601434743E0,4.187439442E0,-8.949156404E-1,1.179661560E1,1.254972760E1
3.603810316E0,-1.775474429E0,-2.967100143E-1,8.346165657E0,8.538081017E0
3.606185889E0,-2.555534601E0,-1.483550072E-1,1.095434189E1,1.124946099E1
3.608561462E0,4.067798615E0,-1.033699393E0,9.719645500E0,1.058711616E1
3.610937035E0,-5.149354458E0,-1.770688742E-1,9.097511292E0,1.045523392E1
3.613312660E0,3.201596737E0,-5.838487148E-1,1.172483063E1,1.216810397E1
3.615688233E0,3.397808075E-1,-6.556333899E-1,8.102097511E0,8.135680071E0
3.618063806E0,-4.646861553E0,-2.536391914E-1,1.033699417E1,1.133627380E1
3.620439379E0,4.632504463E0,-8.949156404E-1,1.099741268E1,1.196678977E1
3.622814952E0,-3.929014683E0,-1.196411327E-1,8.886942863E0,9.717470033E0
3.625190525E0,9.619147182E-1,-3.589234054E-1,1.134197903E1,1.138835344E1
3.627566098E0,2.397608280E0,-1.158126116E0,8.633303642E0,9.034584293E0
3.629941670E0,-5.446064472E0,9.571290761E-2,9.753145218E0,1.117106176E1
3.632317243E0,4.579862595E0,-7.369893789E-1,1.145204926E1,1.235587823E1
3.634692816E0,-2.646461725E0,-4.594219327E-1,8.240880966E0,8.667580243E0
3.637068389E0,-1.871187329E0,-5.886343718E-1,1.123190975E1,1.140191340E1
3.639443962E0,4.130012035E0,-8.614161611E-1,9.643074989E0,1.052558466E1
3.641819587E0,-5.192425251E0,4.785645287E-3,9.370293617E0,1.071278234E1
3.644195160E0,3.608376503E0,-4.833501875E-1,1.153340530E1,1.209435597E1
3.646570733E0,-8.709874153E-1,-9.523434043E-1,8.035098076E0,8.138081969E0
3.648946306E0,-3.967299938E0,-3.397808075E-1,1.081555843E1,1.152524291E1
3.651321879E0,4.862215519E0,-8.997012973E-1,1.071027374E1,1.179663366E1
3.653697452E0,-4.527220249E0,-7.657032460E-2,8.839086533E0,9.931315972E0
3.656073025E0,1.488335729E0,-7.800601721E-1,1.138026428E1,1.150365387E1
3.658448598E0,1.588834286E0,-1.052842021E0,8.628518105E0,8.836526206E0
3.660824170E0,-5.024927616E0,-7.657032460E-2,1.013121128E1,1.130916454E1
3.663199743E0,4.823930264E0,-6.077769399E-1,1.127976608E1,1.228302971E1
3.665575316E0,-3.728017569E0,-3.924229145E-1,8.293522835E0,9.101353292E0
3.667950889E0,-1.110269666E0,-8.757730722E-1,1.134197903E1,1.142979289E1
3.670326514E0,3.742374659E0,-9.667003751E-1,9.494720459E0,1.025132159E1
3.672702087E0,-5.130211830E0,1.052841991E-1,9.547362328E0,1.083892456E1
3.675077660E0,3.890729666E0,-5.790630579E-1,1.142333508E1,1.208162554E1
3.677453233E0,-2.330609322E0,-1.091127157E0,7.968099594E0,8.373345175E0
3.679828806E0,-2.943171740E0,-3.302095234E-1,1.140419292E1,1.178248337E1
3.682204379E0,5.005784988E0,-7.417750359E-1,1.021735287E1,1.140186007E1
3.684579952E0,-5.058426857E0,8.614161611E-2,8.738588333E0,1.009742684E1
3.686955525E0,2.086541414E0,-9.858429432E-1,1.145204926E1,1.168225036E1
3.689331098E0,4.689932466E-1,-8.757730722E-1,8.317451477E0,8.376570433E0
3.691706670E0,-4.197010994E0,-8.614161611E-2,1.073420238E1,1.152585886E1
3.694082243E0,5.067998409E0,-5.503492355E-1,1.083948612E1,1.197839520E1
3.696457868E0,-4.599005222E0,-5.647061467E-1,8.202595711E0,9.420844891E0
3.698833441E0,1.435693651E-1,-4.977070987E-1,1.168175983E1,1.169323896E1
3.701209014E0,3.235096216E0,-7.752745152E-1,8.982656479E0,9.578883835E0
3.703584587E0,-5.015356064E0,2.344966233E-1,9.528220177E0,1.077013300E1
3.705960108E0,4.149154663E0,-7.752745152E-1,1.138504982E1,1.214231833E1
3.708335733E0,-2.885744095E0,-6.939185858E-1,7.963313580E0,8.498435453E0
3.710711306E0,-1.780260086E0,-2.727817893E-1,1.160519028E1,1.174411245E1
3.713086879E0,4.957928658E0,-5.168496966E-1,9.882357597E0,1.106838660E1
3.715462452E0,-5.302495003E0,-5.264209956E-2,8.690732002E0,1.018076850E1
3.717838025E0,2.981456995E0,-7.417750359E-1,1.143290615E1,1.183852436E1
3.720213598E0,-3.397808075E-1,-6.604190469E-1,8.322237015E0,8.355311678E0
3.722589170E0,-3.235096216E0,-6.221338734E-2,1.087777138E1,1.134881616E1
3.724964743E0,5.058426857E0,-5.742774606E-1,1.042313576E1,1.159996706E1
3.727340368E0,-4.881358147E0,-5.072783828E-1,8.288737297E0,9.632660831E0
3.729715941E0,1.493121386E0,-3.972085714E-1,1.194975662E1,1.204922692E1
3.732091514E0,2.612962246E0,-5.694918036E-1,8.547162056E0,8.955773100E0
3.734467087E0,-4.622933388E0,1.435693651E-1,9.710074425E0,1.075535544E1
3.736842660E0,4.378865242E0,-8.901300430E-1,1.105484104E1,1.192377049E1
3.739218233E0,-3.536591768E0,-4.115654826E-1,8.298309326E0,9.029884006E0
3.741593806E0,-1.292124242E-1,-4.594219327E-1,1.174397373E1,1.175366681E1
3.743969379E0,4.326223373E0,-5.359922647E-1,9.298508644E0,1.026965235E1
3.746344952E0,-5.465207100E0,-2.057827413E-1,8.925228119E0,1.046759438E1
3.748720525E0,3.704089403E0,-6.747759581E-1,1.145683479E1,1.205962953E1
3.751096098E0,-1.373480201E0,-4.354937077E-1,8.508877754E0,8.630011777E0
3.753471723E0,-2.043470621E0,-1.339980662E-1,1.105962658E1,1.124762498E1
3.755847295E0,4.555934429E0,-9.044869542E-1,9.734002113E0,1.078542685E1
3.758222868E0,-5.268995285E0,-2.105683982E-1,8.743373871E0,1.021044744E1
3.760598441E0,2.670390129E0,-6.221339107E-1,1.187318611E1,1.218567120E1
3.762974014E0,1.186840057E0,-4.642075896E-1,8.355736732E0,8.452361466E0
3.765349587E0,-4.173082829E0,-2.536391914E-1,1.012642574E1,1.095552151E1
3.767725160E0,4.541577339E0,-8.614161611E-1,1.077248764E1,1.172239107E1
3.770100733E0,-4.345366001E0,-1.292124242E-1,8.628518105E0,9.661792081E0
3.772476306E0,1.296909928E0,-4.019941986E-1,1.161476135E1,1.169385548E1
3.774851879E0,2.775674343E0,-7.274180651E-1,8.700303078E0,9.161265128E0
3.777227452E0,-5.283352375E0,-5.264209956E-2,9.413364410E0,1.079481417E1
3.779603025E0,4.101297855E0,-6.508477330E-1,1.138504982E1,1.211872957E1
3.781978598E0,-2.541177750E0,-3.014956415E-1,8.461020470E0,8.839533436E0
3.784354223E0,-9.332008362E-1,-1.962114573E-1,1.113141060E1,1.117218263E1
3.786729795E0,3.871587038E0,-9.044869542E-1,9.375079155E0,1.018328984E1
3.789105368E0,-5.536991596E0,1.339980662E-1,8.896514893E0,1.047970461E1
3.791480941E0,3.689732552E0,-7.130611539E-1,1.160040379E1,1.219393089E1
3.793856514E0,-7.513462901E-1,-3.349951804E-1,8.255238533E0,8.296125979E0
3.796232087E0,-3.172882795E0,-2.488535494E-1,1.056191921E1,1.103101313E1
3.798607660E0,4.517649174E0,-7.417750359E-1,1.029392338E1,1.126606598E1
3.800983233E0,-4.780859470E0,9.571290575E-3,8.743373871E0,9.965103890E0
3.803358806E0,2.775674343E0,-2.536391914E-1,1.151426220E1,1.184681117E1
3.805734379E0,7.944171429E-1,-6.699903607E-1,8.106883049E0,8.173220813E0
3.808109952E0,-4.651647091E0,-9.571290761E-2,1.009292603E1,1.111369144E1
3.810485525E0,4.809573650E0,-7.896314859E-1,1.097827053E1,1.201157527E1
3.812861150E0,-3.603590965E0,-5.264209956E-2,8.791230202E0,9.501282413E0
3.815236723E0,6.747759581E-1,-2.153540403E-1,1.124148083E1,1.126377340E1
3.817612295E0,2.679961443E0,-9.714859724E-1,8.599804878E0,9.059946041E0
3.819987868E0,-5.182853699E0,1.722832322E-1,9.494720459E0,1.081856601E1
3.822363441E0,4.723432064E0,-6.077769399E-1,1.140897846E1,1.236304950E1
3.824739014E0,-2.608176708E0,-2.919243574E-1,8.169096947E0,8.580323449E0
3.827114587E0,-1.660618901E0,-5.264210105E-1,1.105962658E1,1.119598653E1
3.829490160E0,4.177868366E0,-7.130611539E-1,9.623932838E0,1.051585106E1
3.831865733E0,-4.943571568E0,1.292124242E-1,9.231510162E0,1.047264893E1
3.834241306E0,3.790230989E0,-4.594219327E-1,1.133240795E1,1.195827703E1
3.836616879E0,-1.110269666E0,-9.284151793E-1,7.886743546E0,8.018439825E0
3.838992452E0,-3.493520975E0,-8.135596663E-2,1.096391296E1,1.150733223E1
3.841368077E0,4.972285271E0,-7.848458290E-1,1.046620655E1,1.161383155E1
3.843743650E0,-4.541577339E0,-4.785645381E-2,8.714659691E0,9.827182124E0
3.846119223E0,1.942971945E0,-6.843472719E-1,1.141376400E1,1.159816709E1
3.848494795E0,1.191625714E0,-7.896314859E-1,8.417949677E0,8.538463942E0
3.850870368E0,-4.666004181E0,-3.349951655E-2,1.025085258E1,1.126289021E1
3.853245941E0,4.996213913E0,-6.029912829E-1,1.104048347E1,1.213334362E1
3.855621514E0,-4.101297855E0,-5.790630579E-1,8.317451477E0,9.291714438E0
3.857997087E0,-4.307080805E-2,-4.307080805E-1,1.160040379E1,1.160847675E1
3.860372660E0,3.129812002E0,-9.284151793E-1,8.843872070E0,9.427181504E0
3.862748233E0,-5.020142078E0,1.483550072E-1,9.647860527E0,1.087681242E1
3.865123806E0,4.163511276E0,-7.752745152E-1,1.128933716E1,1.205757066E1
3.867499327E0,-2.880958557E0,-8.757730722E-1,8.078168869E0,8.621120168E0
3.869875004E0,-2.038684845E0,-3.541377485E-1,1.169611740E1,1.187774439E1
3.872250577E0,4.632504463E0,-7.369893789E-1,9.710074425E0,1.078372831E1
3.874626150E0,-5.364708424E0,-1.292124242E-1,8.934800148E0,1.042244914E1
3.877001723E0,2.924029350E0,-8.279166222E-1,1.160997581E1,1.200112211E1
3.879377295E0,-8.662018180E-1,-6.843472719E-1,8.164310455E0,8.238604371E0
3.881752868E0,-3.450450182E0,-2.584248483E-1,1.105484104E1,1.158369114E1
3.884128441E0,4.819144726E0,-7.322037220E-1,1.053799057E1,1.161075034E1
3.886504014E0,-5.173282623E0,-5.694918036E-1,8.504091263E0,9.970292986E0
3.888879587E0,1.531406522E0,-5.312066078E-1,1.182532978E1,1.193590427E1
3.891255160E0,1.493121386E0,-8.279166222E-1,8.499305725E0,8.669086181E0
3.893630733E0,-4.618147850E0,-1.435693540E-2,1.020778179E1,1.120385223E1
3.896006306E0,4.316651821E0,-9.332008362E-1,1.102612686E1,1.187770265E1
3.898381879E0,-4.292723656E0,-5.790630579E-1,8.480163574E0,9.522392801E0
3.900757504E0,-8.135596663E-2,-6.364908218E-1,1.186840057E1,1.188573395E1
3.903133077E0,3.560520172E0,-6.364908218E-1,9.083154678E0,9.776815605E0
3.905508650E0,-5.513063431E0,-1.674975902E-1,9.188439369E0,1.071677852E1
3.907884223E0,3.622733593E0,-9.427721500E-1,1.149033451E1,1.208473439E1
3.910259795E0,-2.689532757E0,-6.795616150E-1,8.398807526E0,8.845075369E0
3.912635368E0,-1.569691658E0,-2.679961324E-1,1.153340530E1,1.164281717E1
3.915010941E0,4.240081787E0,-7.848458290E-1,9.571290970E0,1.049780393E1
